ax,ay,az,wx,wy,wz
6.4595742225647,-0.697358250617981,1.71969175338745,0.4566083252429961,0.947729527950287,0.7348492741584781
8.41107082366943,-1.13808631896973,1.09935247898102,1.1676344871521,0.8295305967330929,1.21665501594543
10.1890878677368,-1.62113738059998,0.5938686728477479,1.59873998165131,0.152406394481659,1.06776106357574
10.0576314926147,-1.69830584526062,-0.12831512093544,1.6810516119003305,-0.44958359003067,0.7114843726158141
8.503493309021,-1.20762765407562,-0.0599701181054115,1.26399564743042,-0.230442121624947,0.685523331165314
8.631360054016112,-0.847657442092896,0.35039895772934004,0.769209384918213,0.251974493265152,1.07310593128204
9.59746170043945,-0.694217681884766,0.4030410647392271,0.6649072170257571,0.36498123407363897,1.31713938713074
10.271639823913599,-0.551096975803375,0.226869493722916,0.693464338779449,0.118809789419174,1.31622314453125
10.4828062057495,-0.27457639575004605,0.267547488212585,0.5923691391944891,0.0332911759614944,1.19099938869476
11.5344524383545,-0.244067907333374,-0.328863561153412,0.3970507085323329,0.20096874237060505,0.829988718032837
11.240135192871099,-0.371635258197784,0.060269221663475,-0.0,0.171953499317169,0.227998733520508
12.9397869110107,-0.906431138515472,1.42328083515167,-0.456913739442825,-0.519678294658661,0.120642334222794
12.4516506195068,-0.6664010882377621,2.31714963912964,-0.4109475016593929,-0.7043069005012509,-0.0517693050205708
9.87502956390381,0.0340977236628532,2.4617657661438,0.0594048947095871,-0.232885524630547,-0.19180603325367
8.76834869384766,-0.32243284583091697,2.09865498542786,0.741110444068909,0.13560809195041698,-0.330162942409515
9.61510944366455,-1.3212867975235,1.87746846675873,1.41136264801025,-0.28801447153091403,-0.437061220407486
10.342677116394,-1.7087744474411002,2.07113766670227,1.95135152339935,-1.04714488983154,-0.36910444498062106
10.4703941345215,-1.48100769519806,2.07323122024536,2.32839703559875,-1.48695492744446,-0.432938009500504
9.594770431518553,-1.11012017726898,1.55952215194702,2.5405137538909903,-1.30049383640289,-0.746760785579681
9.19576740264893,-1.33025979995728,0.948305547237396,2.41193032264709,-0.806623816490173,-1.07402217388153
9.56112098693848,-1.66630184650421,0.6542874574661249,1.96631729602814,-0.591147422790527,-1.28201568126678
9.7284688949585,-1.65568375587463,0.35742789506912204,1.47580695152283,-0.499673068523407,-1.26888251304626
10.047462463378901,-1.56789708137512,0.4242773652076721,0.8454126119613651,-0.3785725831985471,-1.1914576292038002
10.4760770797729,-1.88988125324249,0.513559579849243,0.270605325698853,-0.216698065400124,-1.23330056667328
10.208529472351099,-2.23190522193909,0.8241778612136841,-0.0931542068719864,-0.120947755873203,-1.15098893642426
10.173234939575199,-2.96351075172424,1.42208445072174,-0.0807845517992973,-0.247698560357094,-0.6166502833366391
9.62049293518066,-2.87707018852234,1.47293186187744,0.491273909807205,-0.51188999414444,0.155766054987907
6.82433032989502,-1.42971158027649,0.34980076551437395,1.15511214733124,0.0560452342033386,0.427745789289474
7.76126956939697,-1.24651110172272,-0.670588552951813,1.42037260532379,0.8895463347435001,1.13296890258789
10.5761260986328,-2.00548458099365,-1.07138633728027,1.3049224615097,1.13877201080322,1.33714461326599
10.9867944717407,-1.96600294113159,-1.20523488521576,1.05279529094696,0.762948215007782,1.00301122665405
9.958478927612301,-1.5731313228607198,-0.868145942687988,0.7588250041008,0.472032219171524,0.749356865882874
8.99402236938477,-1.02472627162933,-0.5632106065750121,0.46760356426239,0.528077483177185,0.750578582286835
9.419047355651859,-0.8682954907417301,-0.466301321983337,0.34268531203270003,0.684301614761353,0.93352735042572
9.82223796844482,-0.859172880649567,-0.24586252868175495,0.289236187934875,0.570989489555359,0.925433576107025
10.450203895568801,-0.510418951511383,-1.7844474315643302,0.27610296010971097,0.23761957883834806,0.8620582222938541
10.7910318374634,-0.8063812255859379,-0.905832946300507,-0.193944007158279,0.5519005060195921,0.7846332788467411
10.3360967636108,-1.12298154830933,0.7956135272979741,-0.7511894106864929,0.30359110236167897,0.462564080953598
11.352298736572301,-1.69845545291901,1.80987119674683,-0.35795649886131303,-0.21349111199379,0.415376126766205
12.491580963134801,-1.80478644371033,1.22632157802582,0.6070294380187989,-0.7356128096580509,0.34299072623252896
11.793025970459,-1.30289196968079,0.963858842849731,1.246586561203,-0.6510104537010191,0.224486365914345
10.0103731155396,-0.71904319524765,0.688983380794525,1.3899829387664802,-0.465007483959198,0.0487150698900223
8.68923664093018,-0.720389187335968,0.606431007385254,1.36921417713165,-0.252738058567047,-0.091932512819767
8.930013656616211,-1.5888342857360802,1.5260226726532,1.45763432979584,-0.35933089256286604,-0.15622419118881198
10.079317092895499,-2.06470680236816,2.20752835273743,1.79008793830872,-1.06149983406067,0.15927842259407002
10.3595762252808,-2.0539391040802,2.05453729629517,2.4157481193542503,-1.38891398906708,0.0743706524372101
9.40050315856934,-1.68544447422028,1.3619647026062,2.90900731086731,-1.2423106431961102,-0.563506603240967
8.79676342010498,-1.52407848834991,0.9550353288650508,2.92824912071228,-1.1236535310745202,-0.934443593025208
9.02423191070557,-1.56714928150177,0.167497590184212,2.3222885131835898,-1.1433533430099498,-1.00667631626129
9.70513916015625,-1.54531478881836,0.6970591545104979,1.0986088514328,-1.11922490596771,-0.7913526296615601
10.0456676483154,-1.6787146329879798,1.51854503154755,0.210742309689522,-0.6355865597724909,-0.667808771133423
10.5728368759155,-2.10299205780029,1.90917336940765,-0.152711808681488,-0.424080699682236,-0.754701793193817
11.1707429885864,-2.7539892196655296,1.57118713855743,-0.188140958547592,-0.404991745948792,-0.906802773475647
10.793574333190902,-2.87048983573914,1.01814603805542,-0.179894521832466,-0.237925007939339,-1.01461732387543
9.56545829772949,-2.63988161087036,1.11296164989471,-0.464396625757217,0.188751801848412,-0.715607583522797
7.79940557479858,-1.642822265625,1.15154588222504,-0.5743491649627691,0.6888830065727231,-0.185544848442078
7.7790665626525906,-1.18908333778381,0.50488555431366,-0.242811784148216,1.1320526599884,0.5184566378593439
9.15149974822998,-1.73105764389038,0.263509601354599,0.15347537398338298,1.20382726192474,0.579694032669067
9.897013664245607,-1.98320126533508,-0.0486042089760303,0.377350896596909,0.595576047897339,0.34787750244140603
9.82537841796875,-1.72477650642395,-0.0535394065082073,0.430647313594818,0.341463625431061,0.441337138414383
9.01226711273193,-1.07333052158356,0.134297177195549,0.333980739116669,0.5062396526336671,0.649483323097229
9.00778102874756,-0.731755077838898,-0.103340029716492,0.383459359407425,0.7524111270904541,0.910773277282715
9.62124061584473,-0.798155903816223,0.21849462389946,0.4433223903179169,0.563659310340881,0.936581552028656
10.3698949813843,-0.8231309652328491,0.335892468690872,0.639098942279816,-0.00900999736040831,0.7893673777580258
9.923933029174801,-0.628714144229889,-0.153888404369354,0.904053926467896,0.113923013210297,0.682774543762207
10.4895362854004,-0.708724141120911,-0.1266700476408,0.7962393760681149,0.12278030067682302,0.7463026642799381
11.689537048339801,-1.13180506229401,0.033050861209631,0.673000991344452,-0.104760304093361,0.622453331947327
12.513265609741199,-1.40219402313232,0.551096975803375,0.6404733657836911,-0.364064961671829,0.464396625757217
12.351450920105,-1.06375920772552,0.8657531142234799,0.5688515305519101,-0.677582323551178,0.367119193077087
10.0175523757935,-0.354436844587326,0.985693395137787,0.5502206683158871,-0.502116441726685,0.104913018643856
8.91431140899658,-0.544217586517334,1.2318550348281898,0.551136910915375,-0.286334663629532,-0.13942588865757002
9.78455066680908,-1.29735851287842,1.32338047027588,0.7342383861541751,-0.544112205505371,-0.3920112252235409
10.831261634826696,-1.33743834495544,1.17502546310425,1.10212111473083,-0.8477032780647281,-0.429272919893265
10.806735038757301,-1.1608180999755902,1.01709914207458,1.1793932914733898,-0.982700526714325,-0.658035218715668
10.0965147018433,-1.01829564571381,1.04282200336456,0.857629537582397,-0.8895463347435001,-0.9970554113388058
9.17198848724365,-1.0848460197448702,1.36959183216095,0.5618267655372621,-0.5862606763839721,-1.33500671386719
9.18200778961182,-1.66181528568268,1.1925230026245102,0.5891621708869929,-0.607640326023102,-1.55292642116547
8.84372329711914,-1.71819615364075,0.672233641147614,0.797613799571991,-0.703543305397034,-1.57323706150055
8.68011379241943,-1.71236371994019,0.182004079222679,0.8243383765220641,-0.457371890544891,-1.27880871295929
9.14447116851807,-1.69995093345642,-0.062811590731144,0.425455123186111,-0.27595025300979603,-0.882063448429108
9.3079309463501,-1.71445739269257,0.308225452899933,-0.0791047215461731,-0.108272679150105,-0.513875246047974
11.1945219039917,-2.36395931243896,0.83359956741333,-0.373380392789841,0.0424538850784302,-0.0783411636948586
11.450852394103999,-1.60678040981293,0.91914302110672,-0.359483599662781,0.31534990668296803,0.5315898060798651
8.67368316650391,-0.425623327493668,1.80628204345703,-0.254876017570496,1.30049383640289,0.901915967464447
8.52712249755859,0.207128703594208,1.25563371181488,-0.0552816763520241,1.8481184244155904,0.869846522808075
10.6177015304565,-0.750000357627869,1.2249755859375,0.44622391462326,1.84552228450775,0.731336891651154
10.1721878051758,-1.07691979408264,0.9693922996521,0.7204943299293521,0.443475097417831,0.19058434665203106
9.28071212768555,-1.0523933172226,0.855284571647644,0.8031114339828491,-0.239452123641968,0.31794598698616
7.579116344451902,-0.621685206890106,0.837637484073639,0.7867712974548341,0.3988832533359529,0.7945595979690551
8.99297523498535,-0.7766205072402951,1.1522936820983898,0.7456917762756351,0.550373375415802,1.51856625080109
8.00204753875732,-0.682851791381836,1.30349016189575,0.908635318279266,0.634670317173004,1.7445797920227095
9.67433166503906,-1.65224409103394,0.978514909744263,0.943911731243134,0.0586413368582726,2.06817603111267
11.4327573776245,-1.28315114974976,1.67019021511078,0.7779139876365658,-0.4185830950737,1.9153115749359095
10.6102247238159,-1.43389892578125,1.48519515991211,1.02362728118896,-0.214560106396675,1.3281346559524498
11.0878915786743,-1.5266208648681598,2.39237403869629,0.9098569750785832,-0.451874256134033,0.9604045748710628
11.5881404876709,-2.29531502723694,2.35094833374023,1.02454352378845,-0.5809157490730289,0.552969455718994
12.2546920776367,-2.35633206367493,2.81425857543945,1.07982528209686,-0.702779769897461,0.4689779877662661
10.7364454269409,-1.9607685804367097,3.1634609699249303,1.26017785072327,-0.8405258059501651,0.171953499317169
9.144021987915039,-1.75005066394806,3.16749906539917,1.60744452476501,-0.897181928157806,-0.0485623553395271
7.99741125106812,-2.16356039047241,2.69626235961914,2.04786539077759,-0.964680552482605,-0.206313654780388
9.144171714782713,-3.1755747795105,2.38235402107239,2.2598295211792,-1.3140851259231598,-0.083075225353241
8.93300533294678,-3.17692065238953,2.40314173698425,2.261967420578,-1.03950929641724,0.116366401314735
9.22328472137451,-2.84880495071411,2.66022062301636,2.1996610164642303,-1.14518594741821,0.141105711460114
8.61685371398926,-2.6104199886322,2.3988046646118195,2.125901222229,-1.60377943515778,-0.223570093512535
8.88425159454346,-2.62522554397583,2.12108778953552,1.78367400169373,-1.4901618957519498,-0.464702039957047
9.29267597198486,-2.7390341758728,2.14815664291382,1.06577575206757,-1.1745065450668302,-0.730267882347107
9.2222375869751,-2.73290252685547,2.60742902755737,0.359941750764847,-0.646887242794037,-0.780662775039673
9.26186847686768,-2.77193546295166,3.01002144813538,-0.0114533863961697,-0.31351736187934903,-0.8519791960716251
9.65503978729248,-3.10094857215881,2.9748766422271697,0.0368035472929478,-0.233649075031281,-0.986823737621307
9.94576740264893,-3.76241445541382,1.81046938896179,0.266940265893936,-0.0798682793974876,-1.06547033786774
10.119695663452099,-4.3003511428833,1.13659071922302,-0.00519220158457756,-0.0418430380523205,-0.96956729888916
8.35050201416016,-3.7468612194061297,1.58988106250763,-0.5525113344192499,0.5662553906440729,-0.41797223687171897
7.8263244628906214,-2.75294256210327,2.10344076156616,-0.737292647361755,1.1880979537963898,0.294581085443497
8.23235702514648,-2.0691933631897,1.8653547763824496,-0.217919766902924,1.28980398178101,0.8625163435935971
9.93963527679443,-2.5582265853881805,0.591027200222015,0.452332407236099,1.04592323303223,0.9028322696685792
10.313663482666,-2.6694927215576203,0.301346093416214,0.42530241608619707,0.7220214605331421,0.7061394453048709
9.91166973114014,-2.45279264450073,0.5518447160720831,0.173633337020874,0.689341127872467,0.70461231470108
9.31495952606201,-1.90124714374542,0.882502913475037,0.0297788046300411,0.7583668828010559,0.724922955036163
9.1782693862915,-1.6247265338897698,0.893719255924225,0.186613842844963,0.848314106464386,0.7835643291473392
9.77737236022949,-1.40398871898651,0.8974580168724059,0.27152159810066195,0.616802990436554,0.582442879676819
8.95783042907715,-1.25069844722748,1.42806649208069,0.319014966487885,0.0279462616890669,0.28938889503479
9.23719310760498,-1.03340029716492,1.4899806976318402,0.44530764222145097,-0.417819529771805,0.4521796703338621
9.4187479019165,-0.938883781433105,1.52063882350922,0.464702039957047,-0.257930248975754,0.58381724357605
10.217352867126499,-1.2366406917572,1.93130695819855,0.395065456628799,-0.0952921733260155,0.8122741580009459
12.343524932861301,-2.12078857421875,2.13065910339355,0.50349086523056,-0.330773800611496,0.882063448429108
13.482358932495101,-2.3356940746307404,2.0318055152893097,0.41247460246086093,-0.975217640399933,0.545639336109161
11.2274227142334,-1.23693978786469,1.8560825586319,0.2971771955490109,-0.915201902389526,0.147519618272781
8.18898677825928,-0.9711868762969972,1.47248327732086,0.0696365907788277,-0.23639789223671,-0.3611634373664861
7.58868741989136,-1.72791707515717,1.9100706577301,-0.18157434463501,-0.0693311616778374,-0.562743008136749
9.308229446411133,-1.99845552444458,2.66934323310852,0.1072036921978,-0.7473716139793399,-0.169662833213806
9.63320446014404,-1.80448734760284,2.2998015880584703,0.982395112514496,-1.27300572395325,-0.140494868159294
10.0963659286499,-1.90020024776459,2.31924343109131,1.52940881252289,-1.36295294761658,-0.28755635023117104
9.404839515686039,-2.18270301818848,2.00099802017212,1.48298442363739,-1.56483793258667,-0.8996253013610841
9.4308614730835,-2.91565442085266,1.74735867977142,1.2528476715087902,-1.33241057395935,-1.20718693733215
10.094421386718803,-3.34023094177246,1.32592284679413,0.999651551246643,-0.744775533676147,-1.15679204463959
9.69257640838623,-3.1248767375946005,0.933350384235382,0.9807152748107908,-0.261595338582993,-0.890309870243073
9.64083194732666,-3.2080273628234903,0.34785658121109003,1.18763983249664,-0.137898772954941,-0.759741306304932
9.71336460113525,-3.72622299194336,-0.670139908790588,1.32202613353729,-0.2541124522686,-0.831210434436798
10.1039924621582,-4.39636278152466,-1.1944671869278,1.02790319919586,-0.404228180646896,-0.6178719997406011
10.1333045959473,-3.9695432186126696,-1.06555378437042,0.410642057657242,-0.4074351191520689,0.17760384082794198
7.38484907150269,-1.75842559337616,-0.541824758052826,-0.0733016729354858,0.12858334183692902,1.0196567773819
6.75284481048584,-1.21106731891632,-0.106331057846546,-0.126750811934471,0.943300902843475,1.3763915300369298
9.37672424316406,-2.06201481819153,-0.235094830393791,0.248156696557999,0.6407787799835211,1.11525440216064
11.5609226226807,-2.6904299259185804,-0.95129656791687,0.756076216697693,-0.462716788053513,0.7207997441291809
10.225578308105499,-2.1994526386261,-0.628415048122406,0.9894198179245,-0.468214422464371,0.6113054156303411
9.058030128479,-1.72941255569458,-0.261415868997574,0.7015580534935001,0.176382139325142,0.7049177289009091
9.12323474884033,-1.62906360626221,-0.111415803432465,0.17103722691535905,0.260831773281097,0.642458617687225
8.9663553237915,-1.6181463003158605,-0.29431718587875394,0.191042482852936,0.174855023622513,0.5625903010368349
8.95693302154541,-1.29616212844849,0.192771777510643,0.323290914297104,0.091321662068367,0.6823163628578189
9.07119083404541,-1.14137637615204,0.5448157787322999,0.4228590130805971,-0.0248920265585184,0.735307395458221
10.2342519760132,-1.2149556875228895,0.7698906660079959,0.708124697208405,-0.116671822965145,0.769667565822601
12.1595773696899,-1.9187446832656896,0.986740231513977,1.11036765575409,-0.361927002668381,0.564575552940369
13.4087800979614,-2.35289239883423,0.987936675548553,1.4333530664444,-0.9981244206428532,0.128125205636024
12.859926223754899,-2.7644579410553,0.4905286431312561,1.72487998008728,-0.959793746471405,-0.17164808511734
10.2003040313721,-3.00388979911804,-0.532552599906921,1.30171549320221,-0.742942988872528,-0.5972558856010439
7.56191778182983,-3.23928356170654,1.8951154947280904,0.400715798139572,-1.04393792152405,-0.736376345157623
8.01909637451172,-2.85179591178894,2.7140591144561803,0.8130376935005191,-1.50512766838074,-0.757603287696838
9.28744220733643,-2.94122767448425,2.3635106086731,1.63615441322327,-1.41548585891724,-0.889088213443756
9.358030319213867,-2.8945677280426003,2.06515550613403,1.62546455860138,-1.30690765380859,-1.06898272037506
9.24646472930908,-2.72512578964233,1.5424733161926298,1.4128897190094,-0.614512324333191,-1.15236330032349
9.05608558654785,-2.7197420597076403,0.9520443081855772,1.09708166122437,0.143243685364723,-1.1311364173889198
9.88923645019531,-2.94840621948242,0.13010972738266,0.7403468489646908,0.3503209054470061,-1.13403797149658
10.527971267700199,-2.82861542701721,-0.428763896226883,0.32344362139701804,0.35872006416320795,-1.04729759693146
10.4917793273926,-2.7296123504638703,-0.641725122928619,0.0364981219172478,0.410642057657242,-1.0167552232742298
10.417901039123501,-2.71435809135437,-0.55573308467865,-0.34665581583976696,0.286487370729446,-0.986823737621307
9.49113082885742,-3.0029923915863,-0.169740855693817,-0.68201094865799,0.577403366565704,-0.916576325893402
9.56067276000977,-3.1845479011535605,-0.0160020012408495,-0.68659234046936,0.685981452465057,-0.537698328495026
9.56800079345703,-2.8866415023803698,0.230010077357292,-0.443016976118088,0.34986275434494,-0.0401632077991962
8.4568338394165,-1.81271266937256,0.103788681328297,0.156529605388641,0.2354816198349,0.552664041519165
8.28858852386475,-0.966401219367981,-0.818794012069702,0.8353336453437809,0.3712424337863921,0.932305634021759
8.88365364074707,-1.37183511257172,-1.32532465457916,0.954296112060547,0.23456534743309,0.812579572200775
9.39317512512207,-1.99441766738892,-1.2000005245208702,0.487914234399796,-0.41797223687171897,0.625813007354736
9.08240699768066,-1.88838577270508,-0.24242284893989605,0.0282516852021217,-0.4222481548786161,0.939941227436066
9.029765129089359,-1.42343032360077,0.346211522817612,0.0406213440001011,-0.104760304093361,1.4028106927871695
10.3395366668701,-1.4524433612823502,0.219840586185455,0.401632070541382,-0.256250411272049,1.48008286952972
10.7078809738159,-1.3010972738266002,-0.109322085976601,0.835028231143951,-0.591911017894745,1.31790292263031
10.072736740112301,-0.7763214111328121,-0.452841699123383,1.06256878376007,-0.492342889308929,1.1644276380538898
9.73878860473633,-0.352193593978882,-0.7683951854705809,0.992015957832336,-0.15423893928527802,0.988808989524841
10.7478113174438,-0.526570558547974,-0.733848810195923,0.7931851744651791,-0.148283168673515,0.723701298236847
12.013764381408699,-1.0437192916870102,-0.681505799293518,0.727366387844086,-0.328788548707962,0.318556845188141
12.7513523101807,-1.58748829364777,-0.4486542344093321,0.707208395004272,-0.390636831521988,-0.0714691281318665
13.1524486541748,-2.03928303718567,0.0589232593774796,0.681858241558075,-0.413543581962585,-0.396134436130524
12.2626180648804,-1.62801671028137,0.501445889472961,0.76691871881485,-0.4132381677627561,-0.6470399498939511
9.54152965545654,-1.11550402641296,0.480060040950775,1.05019915103912,-0.0757450610399246,-0.9025267958641048
8.67936611175537,-1.5987045764923102,0.540777921676636,1.2931636571884195,-0.0224486365914345,-1.09066772460938
9.284600257873539,-2.18300199508667,0.7667500972747799,1.37058854103088,-0.677276909351349,-1.2087140083313
10.342677116394,-2.24072885513306,0.632752060890198,1.61126232147217,-1.09769248962402,-1.01309013366699
10.4437732696533,-1.82183539867401,0.441176682710648,1.49627041816711,-1.15465402603149,-0.9187142848968508
9.59686374664307,-1.7228323221206698,0.712313413619995,0.792421579360962,-0.924517333507538,-1.1166287660598797
9.023782730102539,-2.13888430595398,1.14900350570679,0.027640838176012,-0.383459359407425,-1.35333204269409
9.23898696899414,-2.44830632209778,1.5234802961349498,-0.31886225938797,-0.0621537081897259,-1.33974075317383
8.94481945037842,-2.51485657691956,1.38529479503632,-0.0685676038265228,0.150421142578125,-1.21344804763794
9.093324661254881,-2.8003501892089804,0.985244750976562,0.255792289972305,0.151948258280754,-1.08303213119507
9.290283203125,-3.0185458660125697,0.4447658956050871,0.38239037990570096,0.0516165941953659,-0.825865507125854
9.38285541534424,-3.1969606876373304,-0.0357427895069122,0.345739543437958,0.21501824259758,-0.33734038472175604
9.69915676116943,-2.9131119251251203,-0.372831672430038,0.110868774354458,0.239757552742958,0.348641067743301
8.823384284973141,-1.9793130159378096,-0.30792635679245,-0.173938751220703,0.445765793323517,1.02042031288147
8.17343330383301,-0.974177896976471,0.0577268451452255,-0.308019727468491,0.862210929393768,1.5677394866943402
9.28833961486816,-1.1624631881713898,-0.0518943406641483,-0.136829793453217,0.8528954982757572,1.52207863330841
10.5650596618652,-1.77442753314972,0.0999003425240517,0.128125205636024,0.265107721090317,1.2814048528671298
10.5333547592163,-1.85548436641693,0.20563319325447105,0.502116441726685,-0.116060979664326,1.2357439994812
9.74147987365723,-1.31171548366547,0.14880365133285506,0.7997517585754391,0.0250447373837233,1.49031460285187
9.68494987487793,-0.894317448139191,-0.195613250136375,1.03462255001068,0.0674986243247986,1.57980370521545
10.306036949157699,-0.7770691514015201,-0.4950151741504671,1.2510151863098102,-0.25655585527420005,1.42113614082336
10.900652885437,-0.870239675045013,-0.7069295644760129,1.26353752613068,-0.5247178077697751,1.06791377067566
10.6414804458618,-0.7547860145568851,-0.658773958683014,1.02790319919586,-0.5444176197052001,0.69651859998703
10.007532119751,-0.758225679397583,-0.108125671744347,0.82082599401474,-0.26739838719368,0.481958478689194
10.8070335388184,-1.20314109325409,0.21849462389946,0.827239871025085,-0.35215345025062605,0.2701472043991089
12.873684883117699,-2.15219449996948,0.5518447160720831,1.00148403644562,-0.700336396694183,-0.007024743594229221
14.0126686096191,-2.3567807674408,0.5069792866706849,1.08669722080231,-1.06394326686859,-0.303285658359528
12.1553897857666,-1.71176552772522,0.9151051044464108,0.941621065139771,-0.8709154725074771,-0.6029062271118161
9.4567346572876,-1.49835562705994,1.14107728004456,0.8025006055831909,-0.34558683633804305,-0.926960706710815
9.83210849761963,-2.3905794620513903,1.1753245592117298,0.8680139780044559,-0.34665581583976696,-1.20993566513062
10.916505813598599,-2.78045988082886,1.06525468826294,1.09677624702454,-0.957197666168213,-1.2508624792099
11.018798828125,-2.6289644241333,0.936939597129822,1.36203670501709,-1.03446984291077,-1.23360598087311
10.057183265686001,-2.4189941883087203,0.77033931016922,1.03798222541809,-1.03828763961792,-1.47351634502411
9.18170928955078,-2.3916261196136497,1.05209422111511,0.5618267655372621,-0.598783016204834,-1.5911043882370002
8.935098648071289,-2.53713965415955,1.13584303855896,0.312448382377625,-0.226013481616974,-1.5889664888382
8.87677383422852,-2.7239294052124,1.0151549577713002,0.27930989861488303,-0.0875038728117943,-1.52910339832306
8.969645500183109,-2.71435809135437,0.85947197675705,0.29931515455246,0.00610847258940339,-1.3858597278595
9.37208843231201,-2.8843982219696005,0.388983219861984,0.311684817075729,0.0965138673782349,-1.23925638198853
9.59701347351074,-3.12622284889221,-0.178115740418434,0.18279604613781,0.21349111199379,-1.04867208003998
9.18140983581543,-3.4906795024871804,-0.709322333335876,-0.180352658033371,0.333828032016754,-0.763559103012085
8.04152870178223,-3.09720969200134,-0.810867786407471,-0.709193646907806,0.488525092601776,-0.00549762509763241
6.76316356658936,-1.8002998828887902,-0.414107859134674,-1.0931111574173,0.880536317825317,1.0737167596817
7.12253570556641,-1.01784694194794,-0.332602351903915,-0.9562813639640808,1.08242130279541,1.76519584655762
9.50937652587891,-1.6458133459091202,-0.6918248534202579,-0.441184431314468,0.6882721781730649,1.86262595653534
10.768000602722196,-2.10299205780029,-0.435643285512924,-0.0656660795211792,-0.17057909071445498,1.6553961038589498
11.088191032409696,-1.7071293592453,-0.483649283647537,0.104454882442951,-0.42438614368438704,1.85453224182129
11.4080810546875,-0.859322428703308,0.6638587117195129,-0.21471281349659,0.33199548721313504,2.21676468849182
11.354541778564501,-0.0294616296887398,1.0450652837753298,-0.562743008136749,0.456761032342911,2.0174758434295703
11.593225479126,0.0227318145334721,1.38529479503632,-0.240521103143692,0.367882758378983,1.56544876098633
11.104790687561,-0.0302093867212534,1.40264272689819,0.115450128912926,-0.0881147161126137,0.96956729888916
10.5453186035156,-0.46660041809082,1.47263276576996,0.36467581987381,-0.23991025984287306,0.532658815383911
10.8551893234253,-0.949053287506104,1.71520519256592,0.593285381793976,-0.356276661157608,0.355207681655884
11.9065361022949,-1.62562394142151,2.19556427001953,1.0068290233612098,-0.6510104537010191,0.217003494501114
12.9699964523315,-2.24147653579712,2.14052939414978,1.46862947940826,-1.11036765575409,-0.0926960706710815
12.1829071044922,-2.17358016967773,1.94955229759216,1.60561203956604,-1.1028847694397,-0.4604261219501501
9.73878860473633,-1.6712371110916102,2.2781167030334504,1.52009344100952,-0.636044681072235,-0.702779769897461
9.57143974304199,-2.43170595169067,2.36440777778625,1.6912833452224698,-0.35352784395217896,-0.961320877075195
10.472935676574698,-3.3874890804290803,2.23908376693726,2.06267857551575,-0.8328902125358578,-1.18336379528046
10.517502784729,-3.57517623901367,2.1659531593322803,2.34855508804321,-1.24368500709534,-1.25880348682404
9.89222812652588,-3.1951658725738503,1.98260307312012,2.18759679794312,-1.4559544324874898,-1.3794457912445102
9.36790084838867,-2.99850583076477,1.58105754852295,1.86613833904266,-1.11601793766022,-1.51291596889496
9.013014793396,-3.10678100585938,1.4499009847641,1.4674078226089498,-0.618941009044647,-1.5912570953369098
9.135796546936039,-3.1601710319519003,1.35658085346222,1.18092048168182,-0.258999228477478,-1.44144678115845
9.34307479858398,-3.1927731037139906,1.16425776481628,0.947576820850372,-0.0943759009242058,-1.3185137510299698
9.4962158203125,-3.32019090652466,0.871137022972107,0.6923953890800479,0.0561979487538338,-1.23498046398163
8.8471622467041,-3.40109825134277,0.379561483860016,0.343601584434509,0.39598172903060896,-1.09112596511841
8.17582607269287,-3.40693068504333,0.7006483674049381,-0.151490122079849,0.750578582286835,-0.757603287696838
