ax,ay,az,wx,wy,wz
8.25015354156494,-2.90249395370483,0.88025963306427,0.62695837020874,-0.232961878180504,0.0938414111733437
8.76849842071533,-2.70717978477478,0.9556335210800172,0.439122825860977,0.29816982150077803,-0.131866648793221
9.45823001861572,-2.4840490818023704,1.3025928735733,0.110486999154091,0.46286952495575,-0.053143709897995
10.0103731155396,-2.6925237178802504,1.36839544773102,-0.314204573631287,0.336271405220032,0.12575818598270402
10.805987358093299,-2.94586372375488,1.18893373012543,-0.673764526844025,0.22372281551361106,0.0978882759809494
10.723135948181199,-2.53280282020569,0.969691395759583,-0.9226084351539608,0.190507993102074,0.0332911759614944
9.7241325378418,-2.1825532913208003,0.755533754825592,-1.1198357343673702,0.256250411272049,0.0778830274939537
9.282057762146,-2.25224423408508,0.50548380613327,-1.17359030246735,0.363606840372086,-0.0839914977550507
9.51146984100342,-2.28604292869568,0.346660166978836,-0.9213103652000432,0.450652569532394,-0.388575226068497
9.83240699768066,-2.0691933631897,0.5676971673965451,-0.455081194639206,0.4156815707683561,-0.551824152469635
9.76929664611816,-1.7243278026580802,0.996909737586975,-0.146297916769981,0.0741415843367577,-0.40835139155387895
9.333803176879881,-1.49162578582764,0.9981061220169072,-0.13980767130851698,-0.460349768400192,-0.095063105225563
8.88185882568359,-1.41505551338196,0.510568559169769,-0.0370326153934002,-0.6083275079727171,0.108425386250019
8.75473976135254,-1.41326081752777,0.252143681049347,0.3568111658096311,-0.22013407945632896,0.13850961625576
8.955437660217289,-1.44287204742432,0.591326296329498,0.73744535446167,0.0910925939679146,0.14408360421657598
9.34157943725586,-1.7847466468811002,1.18863463401794,0.8399913311004642,-0.0238993987441063,0.18829366564750696
10.2415800094604,-2.28783750534058,1.57268273830414,0.750578582286835,-0.4008685052394871,0.136753425002098
10.702497482299801,-2.1924238204956104,1.3719847202301,0.6659762263298029,-0.738667070865631,0.0475697293877602
10.0477609634399,-2.25015068054199,0.91495555639267,0.7282062768936161,-0.627263784408569,0.191347897052765
9.844072341918947,-2.6234309673309304,0.8356932997703549,0.82991236448288,-0.158133089542389,0.134691819548607
10.2326068878174,-2.42004108428955,1.3890335559845,0.8987854123115541,0.0576487109065056,0.0324512608349323
10.2756776809692,-2.15772771835327,2.13708972930908,0.819757044315338,-0.334515243768692,0.268772780895233
9.87218761444092,-2.2154545783996604,2.0775682926178,0.569386005401611,-0.992092311382294,0.5411342978477479
9.30449104309082,-2.55523538589478,1.29272246360779,0.4018611311912539,-1.07058620452881,0.524488747119904
8.91565704345703,-2.8043880462646498,0.662213683128357,0.4037700295448301,-0.466840028762817,0.18401773273944896
9.08465003967285,-2.70807695388794,0.62004017829895,0.452026963233948,0.22234840691089605,-0.107967250049114
9.54257678985596,-2.42751860618591,0.74237322807312,0.30794337391853305,0.49470990896225,-0.0427593067288399
9.68913745880127,-2.5040888786315896,0.689132928848267,0.00733016710728407,0.533727765083313,0.34665581583976696
9.5330057144165,-2.98205518722534,0.897009372711182,-0.132630214095116,0.725533843040466,0.477453500032425
9.13759136199951,-3.0173492431640603,1.21615207195282,-0.3060344755649569,0.4132381677627561,0.0358872748911381
8.79631519317627,-2.757728099823,1.24277222156525,-0.45767730474472,-0.0944522544741631,-0.2868691384792331
8.92582702636719,-2.60757851600647,0.908674418926239,-0.481882125139236,-0.408656805753708,-0.545562982559204
9.24048328399658,-2.46371006965637,0.349950313568115,-0.288090825080872,-0.42331716418266296,-0.704001486301422
9.37836933135986,-2.2214367389679,0.0257228426635265,0.086816668510437,-0.127667084336281,-0.698503851890564
9.39661407470703,-2.01356029510498,0.22163519263267495,0.396134436130524,0.170273676514626,-0.520747303962708
9.401998519897461,-1.8490537405014,0.519541621208191,0.489746779203415,0.193104088306427,-0.255563229322433
9.339784622192381,-1.67946243286133,0.509970307350159,0.531055331230164,0.0615428611636162,0.0384070202708244
9.234800338745119,-1.68125700950623,0.4280161559581761,0.680331110954285,-0.00038177953683771204,0.28305134177207897
9.24048328399658,-1.93519532680511,0.457627326250076,0.881070792675018,-0.0313822776079178,0.343677937984467
9.43729209899902,-2.35932302474976,0.556331276893616,1.0143119096756,-0.088191069662571,0.210131451487541
10.2302141189575,-2.81515574455261,0.62004017829895,0.928945958614349,-0.11774080991745,0.0361927002668381
10.9842519760132,-2.8043880462646498,0.5210371017456049,0.629249036312103,-0.0674222633242607,0.0306187197566032
10.2009019851685,-2.60907387733459,0.47617170214653,0.44003909826278703,0.148283168673515,0.383459359407425
8.9515495300293,-2.95932340621948,0.650249540805817,0.34085276722908003,0.358643710613251,0.483638316392899
8.91117095947266,-3.3296127319335898,0.827019333839417,0.346274048089981,0.229373142123222,-0.0591758266091347
9.57487964630127,-3.31017112731934,1.19910323619843,0.51494425535202,-0.0013744062744081,-0.322145581245422
9.7570333480835,-3.1606194972991903,1.57956206798553,0.467298150062561,-0.462105959653854,-0.11804623156786
9.45852851867676,-3.1770703792572004,1.2756736278533898,0.15179555118084,-0.876107692718506,0.192722305655479
9.22702312469482,-3.275475025177,0.5805585980415339,0.00328330392949283,-0.676589667797089,0.2868691384792331
9.057432174682619,-3.14207530021667,0.24765715003013605,0.13820418715476998,-0.0771958231925964,0.179207310080528
8.80708312988281,-2.79720973968506,0.406181633472443,0.323290914297104,0.329475730657578,0.0638335421681404
8.71017360687256,-2.58365035057068,0.620638370513916,0.3633013963699339,0.402395635843277,-0.0216087214648724
9.24825954437256,-2.6886353492736803,0.773779034614563,0.226777046918869,0.341692686080933,-0.133241057395935
9.92243766784668,-2.59471702575684,1.11595261096954,-0.0821589529514313,0.181116208434105,-0.23090025782585105
10.073484420776401,-2.3018953800201403,1.1081759929656998,-0.5977904200553891,-0.15431529283523598,-0.153857156634331
10.158429145813,-2.22502589225769,0.493220567703247,-1.06867730617523,-0.216927126049995,-0.0856713280081749
10.3148603439331,-2.19691038131714,-0.0927218794822693,-1.18657076358795,0.178138330578804,-0.160118341445923
10.1596260070801,-1.96719932556152,-0.200099796056747,-0.9975135922431948,0.63268506526947,-0.233878150582314
9.645467758178713,-1.56251323223114,-0.0484546571969986,-0.7621083259582521,0.773714423179626,-0.162256300449371
9.023932456970213,-1.3202399015426598,0.0343968272209167,-0.514409720897675,0.687737643718719,0.0625354871153831
8.558229446411131,-1.4464613199234,0.0562313310801983,-0.17538951337337502,0.533880531787872,0.183330535888672
8.48135948181152,-1.7973089218139602,0.198903381824493,0.175465881824493,0.374067604541779,0.112166829407215
8.88544750213623,-2.22382950782776,0.4737788736820221,0.382848531007767,0.158209443092346,0.0243575349450111
9.731011390686039,-2.77358055114746,0.909272611141205,0.408733159303665,-0.13537901639938402,0.11712995916605
10.7060871124268,-3.30299258232117,1.0253244638443,0.364599466323853,-0.491808384656906,0.3177169263362881
11.0730857849121,-3.51296281814575,0.702891647815704,0.459662556648254,-0.632990479469299,0.513722538948059
10.1500549316406,-3.5503506660461404,0.73459655046463,0.6100836992263791,-0.334133446216583,0.5650337338447571
8.88125991821289,-3.7914273738861097,0.9403793215751652,0.5929036140441889,-0.0854422599077225,0.34451785683631897
8.58903694152832,-4.02712059020996,1.20059871673584,0.4858526289463039,0.0236703306436539,-0.0939177647233009
8.7511510848999,-3.98375058174133,1.77607262134552,0.26716932654380804,-0.0177909266203642,-0.362995982170105
8.87228679656982,-3.88803768157959,2.29950261116028,-0.176000371575356,-0.3862845301628111,-0.304430991411209
8.83310508728027,-4.08305263519287,2.17627215385437,-0.7572978734970089,-0.758748650550842,-0.14415995776653304
8.55493927001953,-4.4324049949646,1.78384923934937,-1.30225002765656,-0.594736158847809,-0.210131451487541
8.35274600982666,-4.45723056793213,1.56789708137512,-1.85598301887512,-0.109723441302776,-0.435228675603867
8.64347362518311,-4.14107847213745,1.50717914104462,-2.42995047569275,0.34413608908653304,-0.37086063623428295
9.1052885055542,-3.83988213539124,1.37108743190765,-2.92382049560547,0.4831801950931551,0.0632990449666977
9.015557289123539,-3.9460637569427504,1.05792665481567,-3.25383067131042,0.552664041519165,0.5125772356987001
8.81934642791748,-4.540979385375981,0.8201399445533749,-2.98085832595825,0.601455509662628,0.638640820980072
9.27996444702148,-4.87029123306274,0.9248259663581851,-2.69475269317627,0.960022807121277,0.348030239343643
9.97238731384277,-4.417150497436519,1.13569343090057,-3.12051320075989,1.24284505844116,0.0920088663697243
10.0519485473633,-3.7525441646575897,0.909870803356171,-3.40570259094238,1.20756864547729,0.20264858007431
9.68255710601807,-3.5111682415008505,0.420837670564651,-3.566813468933109,1.37662065029144,0.31466269493103
9.49980545043945,-3.45942330360413,0.297009110450745,-3.6792094707489,1.77825272083282,0.154009863734245
9.39930629730225,-3.23360061645508,0.668195724487305,-3.80504393577576,1.98303925991058,-0.105065725743771
9.33440113067627,-2.84656167030334,1.1237293481826798,-3.9605045318603502,1.81200206279755,-0.327414125204086
9.37208843231201,-2.44367003440857,1.20807635784149,-3.95867204666138,1.39296078681946,-0.49295374751091
9.40349388122559,-2.20079851150513,0.9771689176559448,-3.58643698692322,1.03660774230957,-0.600615561008453
9.40469074249268,-2.11196517944336,0.7872386574745179,-2.91030550003052,0.874504208564758,-0.672695517539978
9.33051300048828,-2.03659129142761,0.8398807644844059,-2.19698858261108,0.798835515975952,-0.681323766708374
9.2925271987915,-1.9914265871048,1.04267251491547,-1.6570758819580098,0.630317986011505,-0.567248046398163
9.62722301483154,-2.00638175010681,1.25982117652893,-1.3453910350799598,0.380328774452209,-0.368340909481049
10.0821580886841,-1.8448662757873504,1.32951211929321,-1.20298731327057,0.0515402369201183,-0.11231953650713
9.9837532043457,-1.5963118076324498,1.1099705696106,-1.03950929641724,-0.234030857682228,0.2916032075881961
9.450154304504393,-1.63698983192444,0.701097011566162,-0.795246779918671,-0.213338404893875,0.563506603240967
9.21505928039551,-1.97527503967285,0.460020154714584,-0.5249468684196471,0.10697462409734697,0.471115946769714
9.50130081176758,-2.36231422424316,0.7292127013206479,-0.312601089477539,0.37422031164169295,0.149581223726273
9.84347438812256,-2.61116766929626,1.32891392707825,-0.239833906292915,0.20142687857151,-0.169204697012901
9.8602237701416,-2.66979193687439,1.5361921787261998,-0.389262408018112,-0.28915983438491805,-0.391934871673584
9.49023342132568,-2.51964235305786,0.9837492108345028,-0.654141068458557,-0.499978482723236,-0.527313888072968
9.14357376098633,-2.31475687026978,0.27427729964256303,-0.8438854813575741,-0.0643680319190025,-0.579694032669067
9.02303504943848,-2.13080859184265,0.032602209597826,-0.9316948056221008,0.6604022383689879,-0.531131684780121
9.05444049835205,-2.00309157371521,0.302692055702209,-1.01835870742798,1.1302201747894298,-0.35772743821144104
9.29970550537109,-1.96839570999146,0.82582288980484,-1.1807677745819098,1.1236535310745202,-0.114610217511654
9.62154006958008,-1.8146568536758405,1.03130650520325,-1.3680688142776498,0.683996200561523,0.137898772954941
9.38764190673828,-1.5852450132370002,0.672682285308838,-1.31148910522461,0.26014456152916,0.412932753562927
8.85314464569092,-1.84456717967987,0.306879490613937,-0.86564689874649,0.205626457929611,0.519525587558746
9.1211404800415,-2.77597332000732,0.6113662123680109,-0.20883341133594505,0.29099234938621504,0.14553436636924694
10.160821914672901,-3.3415768146514906,1.54785716533661,0.13576079905033098,-0.0265718549489975,-0.616192162036896
10.753643989563,-2.6255247592926003,1.99621224403381,-0.217843398451805,-0.88771378993988,-0.95307445526123
10.1222381591797,-1.4623137712478602,1.1042876243591295,-0.9125294685363772,-1.39273178577423,-0.474093824625015
8.92014408111572,-1.05732846260071,-0.235094830393791,-1.20031487941742,-0.678116798400879,0.158362150192261
8.30189800262451,-1.1641081571579,-0.7492526173591609,-0.947958588600159,0.620697200298309,0.289694309234619
8.65663433074951,-1.19850504398346,-0.181555420160294,-0.549915254116058,1.45060956478119,0.188140958547592
9.52373313903809,-1.20179522037506,1.0325030088424698,-0.249989241361618,1.33897721767426,0.26854372024536105
10.0872430801392,-1.4060823917388898,2.00339078903198,-0.0907871723175049,0.408122330904007,0.461647808551788
10.134501457214402,-1.7733806371688798,1.91545450687408,0.0623064190149307,-0.699343740940094,0.502574563026428
10.1132650375366,-1.98574364185333,1.10099756717682,0.381474107503891,-1.20230007171631,0.34268531203270003
10.199406623840302,-2.19362020492554,0.372083932161331,0.791810750961304,-0.901915967464447,0.185850277543068
10.3995065689087,-2.40777778625488,0.253040999174118,1.01309013366699,-0.222653821110725,0.0237466879189014
10.0905332565308,-2.13409876823425,0.484546571969986,0.926655292510986,0.24617144465446494,-0.0460426136851311
9.208478927612301,-2.14636182785034,0.718145906925201,0.709346354007721,0.475315511226654,0.169357404112816
8.787342071533201,-2.85852575302124,0.857228696346283,0.5044071078300479,0.5258631110191351,0.0360399894416332
9.14895725250244,-3.27697062492371,1.0878369808197,0.476155430078506,0.407358765602112,-0.488296031951904
9.67148971557617,-3.0352954864502,1.63399875164032,0.514791548252106,0.0406213440001011,-0.695144176483154
9.72443103790283,-2.63180589675903,1.97826611995697,0.21906509995460505,-0.661929368972778,-0.3878116607666021
9.34367370605469,-2.59621262550354,1.52362978458405,-0.3042782843112949,-1.14808738231659,0.0155766047537327
9.00568675994873,-2.95992159843445,0.64695942401886,-0.6252785325050351,-0.8216659426689151,0.10086615383625
9.064311027526859,-3.25693082809448,0.0302093867212534,-0.650094211101532,0.0749815031886101,-0.151031985878944
9.53061294555664,-3.23001146316528,0.106480605900288,-0.5762580037116999,0.9651386737823492,-0.38422292470932
9.88923645019531,-3.04995155334473,0.890130043029785,-0.6214607357978821,1.35043060779572,-0.3569638729095461
9.99571704864502,-3.344866991043089,1.62891399860382,-0.891531586647034,1.08623909950256,-0.238077715039253
10.053145408630401,-3.4869408607482897,1.8391833305358896,-1.24345600605011,0.5871005654335021,-0.357498347759247
9.284749984741213,-2.72422862052917,1.4108680486679095,-1.49947726726532,0.244109839200974,-0.479820519685745
8.52562713623047,-2.37248373031616,0.949651479721069,-1.52551472187042,0.315426260232925,-0.413543581962585
8.825029373168949,-2.43409872055054,0.886540770530701,-1.30179190635681,0.38842248916626,-0.5399126410484311
9.46690368652344,-2.16789722442627,0.848853826522827,-0.9405520558357242,0.214865520596504,-0.6139014959335329
9.6729850769043,-1.80239367485046,0.849452018737793,-0.5628957748413089,0.0282516852021217,-0.421255528926849
9.43998432159424,-1.48743832111359,0.8685946464538571,-0.39903596043586703,-0.119955129921436,-0.164394274353981
9.25184917449951,-1.21106731891632,0.585045158863068,-0.450957983732224,-0.20929154753685,0.0552053228020668
9.30000400543213,-1.06540429592133,0.220737889409065,-0.3729985952377321,0.0623064190149307,0.25113457441329995
9.37238693237305,-1.14376926422119,0.294915378093719,-0.130492240190506,0.440802663564682,0.38681903481483504
9.37806987762451,-1.42253303527832,0.755533754825592,0.0195471122860909,0.490281283855438,0.43431240320205705
9.412766456604,-1.64506554603577,1.19700956344604,0.00458135455846786,0.182719692587852,0.3785725831985471
9.62483024597168,-1.89481639862061,1.44436752796173,-0.0856713280081749,-0.197609081864357,0.363072335720062
10.3890380859375,-2.15772771835327,1.4464613199234,-0.22105035185813893,-0.47516280412674,0.38872793316841103
10.9540433883667,-1.7937196493148797,1.07018995285034,-0.305576354265213,-0.5425850749015809,0.4599680006504061
10.3600244522095,-1.66510546207428,0.6664010882377621,-0.235405266284943,-0.265031367540359,0.734162032604218
9.63260650634766,-2.40568399429321,0.720239639282227,-0.16469968855380998,0.21028417348861705,0.7195017337799069
9.47049331665039,-2.7897322177887003,1.06091773509979,-0.181803420186043,0.455615699291229,0.263886004686356
9.525228500366213,-2.61116766929626,1.66690003871918,-0.186461120843887,0.279691696166992,-0.0358872748911381
9.47138977050781,-2.4514467716217,2.0488543510437,-0.286640077829361,-0.32374903559684803,0.0117588099092245
9.344869613647461,-2.6461627483367898,1.8011972904205302,-0.46187686920166,-0.791734397411346,0.115984626114368
9.278767585754393,-2.93449783325195,1.32771742343903,-0.5751890540122989,-0.6788803935050961,-0.0046577104367315795
9.43220806121826,-2.94975209236145,1.00857472419739,-0.661165773868561,-0.18890450894832606,-0.192645952105522
9.77109146118164,-2.72004103660583,0.988235771656036,-0.761039316654205,0.377427250146866,-0.193409517407417
10.0486583709717,-2.68444800376892,1.0049854516983,-0.8403730988502499,0.564041078090668,-0.0257319416850805
10.324131965637198,-2.99312210083008,0.9143573641777042,-0.638029932975769,0.484096467494965,-0.00313059217296541
10.0064849853516,-2.7978079319000204,0.7977072596549991,-0.332682698965073,0.40346461534500105,-0.406060725450516
8.83430099487305,-2.43708992004395,0.669990360736847,-0.27701923251152,0.35810920596122703,-0.6499415040016171
8.42692279815674,-2.4783661365509,0.725623488426208,-0.465160191059113,0.510210156440735,-0.906115531921387
8.91296482086182,-2.2411775588989302,0.678664326667786,-0.66551810503006,0.4817294180393221,-1.19978034496307
9.41934680938721,-1.88016045093536,0.630508780479431,-0.6783458590507511,0.4176668226718901,-1.11067306995392
9.52552795410156,-1.7374883890151998,0.85334038734436,-0.595346987247467,0.290457874536514,-0.790894508361816
9.321539878845213,-1.58763778209686,0.972682416439056,-0.5948888659477231,-0.0008399150101467969,-0.466840028762817
9.18305492401123,-1.4126626253128098,0.727418065071106,-0.5519768595695501,-0.22944949567318,-0.158591225743294
9.19262599945068,-1.3728820085525502,0.367298275232315,-0.27976804971694896,-0.202190443873405,0.121024116873741
9.33410167694092,-1.46560382843018,0.26321050524711603,0.158667579293251,-0.00870457384735346,0.32489439845085105
9.49172878265381,-1.5317056179046598,0.517746984958649,0.584275424480438,0.0917034447193146,0.46943610906601
9.514162063598633,-1.67736864089966,0.966401219367981,0.8186116814613341,-0.0326039716601372,0.657882511615753
9.70857906341553,-2.18733906745911,1.3396816253662098,0.778066694736481,-0.277171939611435,0.80433315038681
10.220343589782699,-2.535195589065549,1.36002051830292,0.582748293876648,-0.495931625366211,0.6849888563156129
10.2266244888306,-2.4747767448425297,1.21704936027527,0.590154826641083,-0.5444176197052001,0.656279027462006
9.844072341918947,-2.83160638809204,1.32771742343903,0.693693399429321,-0.26800924539566,0.8534299731254581
9.85304546356201,-3.19980216026306,1.52871453762054,0.6574243903160101,-0.187988236546516,0.667274296283722
10.0292167663574,-3.07447791099548,1.8574285507202104,0.7366818189620971,-0.28740364313125605,0.570302248001099
9.76839923858643,-2.84925365447998,2.05094814300537,0.789061963558197,-0.571753025054932,0.749662280082703
9.08674430847168,-2.88215494155884,1.52362978458405,0.6783458590507511,-0.722097814083099,0.849383115768433
8.4293155670166,-3.0852456092834504,0.774676322937012,0.588016867637634,-0.240597456693649,0.607487618923187
8.325527191162111,-3.19112801551819,0.7603194117546078,0.518991112709045,0.47157409787178,0.147748678922653
8.80140018463135,-3.05802726745605,1.3704891204834,0.280837029218674,0.698274791240692,-0.21631628274917605
9.43400192260742,-2.78494644165039,1.79551434516907,-0.118809789419174,0.33756947517395003,-0.325276166200638
9.91047286987305,-2.80767822265625,1.5451651811599698,-0.446605712175369,-0.131484866142273,-0.27572119235992404
10.4368944168091,-2.96979188919067,0.9798609018325808,-0.5536566972732541,-0.18310146033763894,-0.43843561410903903
10.2532453536987,-2.5582265853881805,0.68943202495575,-0.5250232219696039,0.0891837030649185,-0.6492542624473571
9.25483989715576,-2.1625134944915803,0.8285148143768309,-0.628409147262573,0.421102821826935,-0.5429668426513671
8.89920616149902,-2.25044965744019,1.03788685798645,-0.8788564801216129,0.465312898159027,-0.589925765991211
9.39242744445801,-2.39641189575195,0.99481600522995,-0.86175274848938,0.266634821891785,-0.773714423179626
9.6729850769043,-2.38205504417419,0.8820542693138119,-0.478598833084106,0.0568851493299007,-0.873053431510925
9.37507915496826,-2.36799716949463,0.9900303483009342,-0.0119115216657519,-0.0600920990109444,-0.827239871025085
9.120542526245119,-2.32522535324097,1.07647109031677,0.18569757044315305,-0.24029204249382,-0.7769976854324341
9.24825954437256,-2.09222435951233,0.8536394834518429,0.290228813886642,-0.3659738600254061,-0.652003109455109
9.36580657958984,-1.84666085243225,0.558425009250641,0.557932615280151,-0.27152159810066195,-0.3662029206752779
9.33081150054932,-1.817049741745,0.648754060268402,0.83647894859314,-0.0329093970358372,-0.0714691281318665
9.41785049438477,-1.77667081356049,0.938883781433105,0.904970228672028,0.0584122687578201,0.115221060812473
9.6828556060791,-1.9348962306976296,0.9999007582664492,0.8853467702865601,-0.0030542362947017,0.27709558606147805
10.5302143096924,-2.30398917198181,1.22751796245575,0.886339366436005,-0.0573432855308056,0.310844898223877
10.843973159789998,-1.8903298377990705,1.1709876060485802,0.844801783561707,-0.25151637196540805,0.287938117980957
9.91705322265625,-1.64177548885345,0.8578268885612491,0.782418966293335,-0.119115218520164,0.569538712501526
9.17198848724365,-2.12213468551636,0.9230313301086428,0.6814764738082889,0.28182965517044106,0.6438329815864561
9.25783061981201,-2.36590337753296,1.27746820449829,0.59175831079483,0.420797407627106,0.419423013925552
9.54825973510742,-2.3635106086731,1.87896394729614,0.6171084642410279,0.162332653999329,0.33405709266662603
9.31585693359375,-2.3569302558898904,2.1885354518890403,0.493488222360611,-0.543730437755585,0.336118698120117
8.7176513671875,-2.47268319129944,1.75633180141449,0.182261556386948,-0.978806376457214,0.349480986595154
8.38474941253662,-2.66889452934265,1.07348001003265,-0.0196998249739408,-0.6285618543624879,0.18982078135013605
8.71136951446533,-2.7643084526062,0.8321040868759159,-0.0523037947714329,0.0941468328237534,-0.019088976085186
9.38973522186279,-2.68026041984558,1.13270246982574,-0.0953685268759727,0.518227517604828,-0.112472251057625
9.92722320556641,-2.84416890144348,1.4123635292053205,-0.240444749593735,0.4542413055896761,-0.0706292167305946
10.7766752243042,-3.34217500686646,1.5768700838088998,-0.419957488775253,0.298246175050735,-0.17752748727798498
10.9869441986084,-2.8498518466949503,1.5921243429183998,-0.620009958744049,0.232656449079514,-0.5119663476943971
9.65204811096191,-1.81226408481598,1.17278218269348,-0.902374088764191,0.32550522685051003,-0.470810532569885
8.79721260070801,-1.7530417442321795,0.860518872737885,-1.07280051708221,0.7024743556976322,-0.268391013145447
9.0152587890625,-2.0171494483947803,0.784546732902527,-0.912224054336548,0.942613661289215,-0.38300123810768105
9.45135021209717,-2.0742781162262,0.97567343711853,-0.462564080953598,0.901992321014404,-0.588398635387421
9.5291166305542,-1.8424733877182,1.52721905708313,-0.019088976085186,0.516165912151337,-0.645131051540375
9.29671382904053,-1.5107684135437,1.89900386333466,0.0860531106591225,-0.20417569577693895,-0.464702039957047
9.10169887542725,-1.22841536998749,1.4721841812133798,-0.0171800795942545,-0.8311340808868409,-0.16699036955833402
9.088239669799801,-1.06181502342224,0.5632106065750121,0.111632339656353,-0.7989118695259091,0.143778175115585
9.21715259552002,-1.10787689685822,0.165702968835831,0.554878354072571,-0.108578100800514,0.406366139650345
9.40439128875732,-1.20807635784149,0.5886343717575071,0.8895463347435001,0.373227685689926,0.5247178077697751
9.62991428375244,-1.53529477119446,1.47128677368164,0.909475207328796,0.243422627449036,0.6327614188194269
10.288538932800302,-2.02582335472107,2.11226415634155,0.6633037924766539,-0.362995982170105,0.6499415040016171
10.6513509750366,-1.82153618335724,1.77547442913055,0.420110195875168,-1.06898272037506,0.475315511226654
9.809675216674801,-1.59601271152496,1.05822587013245,0.44095537066459706,-1.00224769115448,0.619933605194092
9.020941734313961,-2.07996106147766,0.7962117195129391,0.4718031585216521,-0.29450473189353904,0.6340594291687011
9.2793664932251,-2.46460723876953,0.954736232757568,0.367271900177002,0.256632208824158,0.26739838719368
9.97029399871826,-2.41166615486145,1.6989040374755902,0.227922379970551,0.33970743417739896,0.0469588823616505
10.059126853942901,-2.24416851997375,2.3736801147460898,-0.0958266630768776,-0.166150450706482,0.134386390447617
9.55424213409424,-2.36261320114136,2.01625227928162,-0.577021598815918,-0.705375850200653,0.273888647556305
9.13759136199951,-2.68953275680542,1.08125674724579,-0.821895003318787,-0.54541027545929,0.157598599791527
9.13848876953125,-2.81904411315918,0.6134598851203921,-0.692548096179962,0.16958646476268802,-0.154926136136055
9.37358379364014,-2.64077877998352,0.84556370973587,-0.468596190214157,0.6633037924766539,-0.3481065928936
9.53210830688477,-2.54955244064331,1.14765751361847,-0.33512607216834994,0.545639336109161,-0.30656898021698
9.76421165466309,-2.86989164352417,1.2942179441452,-0.220057725906372,0.28160059452056896,-0.284273028373718
9.86919689178467,-2.74995136260986,1.3322039842605602,-0.162485376000404,-0.0269536357372999,-0.603746175765991
9.44925689697266,-2.15862512588501,1.06390881538391,-0.23448899388313305,-0.336195051670074,-0.5657209157943729
9.341878890991213,-1.99202489852905,0.7432705163955692,-0.310386776924133,-0.15080291032791102,-0.30175855755806
9.63559722900391,-2.05932307243347,0.4130610227584841,-0.271827042102814,0.0359636321663857,-0.30145311355590804
9.73131084442139,-2.09581351280212,0.183050930500031,-0.0743706524372101,0.272666931152344,-0.349251925945282
9.59910678863525,-2.0404794216156,0.389431893825531,0.126216322183609,0.503948986530304,-0.399723172187805
9.35174942016602,-1.78026008605957,0.6388836503028871,0.0766613334417343,0.4294256269931789,-0.3673482835292821
9.11485958099365,-1.44167566299438,0.5306084156036379,-0.0843732804059982,0.251287281513214,-0.17592400312423698
9.00269603729248,-1.20687997341156,0.27487549185752896,-0.0632226914167404,0.209215179085732,0.0791810750961304
9.07208824157715,-1.2332010269165,0.27068805694580106,0.185544848442078,0.22013407945632896,0.282058715820312
9.282057762146,-1.38843536376953,0.62781685590744,0.494633555412292,0.0699420124292374,0.3706315755844121
9.45882797241211,-1.62173557281494,1.03070831298828,0.70797199010849,-0.320007622241974,0.417895883321762
10.2418794631958,-2.1885354518890403,1.40787696838379,0.7970029711723331,-0.7389724850654599,0.3910949528217321
11.119746208190902,-2.0724835395813,1.39770758152008,0.815862894058228,-1.23490405082703,0.257395774126053
10.745268821716301,-1.63399875164032,0.9287142753601072,0.89764004945755,-1.28766596317291,0.6084802150726321
10.0274219512939,-1.94536483287811,0.609272480010986,0.996902704238892,-0.65643173456192,0.8736643195152279
9.9475622177124,-2.1200408935546897,0.7292127013206479,1.07104432582855,0.00190889765508473,0.57305109500885
