ax,ay,az,wx,wy,wz
8.041379928588869,-2.17956233024597,0.270987153053284,0.0894891247153282,0.00931542087346315,-0.623369634151459
8.74666404724121,-2.37726926803589,0.183649137616158,0.277477353811264,-0.172869771718979,-0.3817795515060421
9.64905738830566,-2.4358935356140097,-0.444616347551346,0.325887024402618,-0.110563352704048,-0.13285927474498702
10.61097240448,-2.69760847091675,-1.14003038406372,-0.0768140405416489,0.0151184694841504,0.0778830274939537
11.8603248596191,-3.18365049362183,-1.24157583713531,-0.8124268651008609,-0.0855186134576797,0.397661566734314
10.9359474182129,-2.66545486450195,-0.363858580589294,-1.23727107048035,0.272132456302643,0.845870733261108
8.51799964904785,-1.30124688148499,0.29401808977127103,-1.2574291229248,0.648719787597656,1.17801892757416
8.56795024871826,-0.8279166221618649,0.15478570759296398,-0.923142910003662,0.575265407562256,1.17465925216675
10.1349496841431,-0.8111668825149541,-0.32961133122444203,-0.444849520921707,0.14996300637722002,0.8619054555892941
11.3016004562378,-1.12537443637848,-0.4686941206455229,-0.12919420003891,-0.0369562581181526,0.40621343255043
9.92094135284424,-0.970140039920807,-0.528514683246613,-0.18172706663608604,0.343906998634338,0.141869276762009
8.38459968566895,-0.6403791308403021,-0.855434119701385,-0.488066971302032,0.632990479469299,0.262511610984802
7.996813297271731,-0.34007990360259993,-1.88973164558411,-0.8941276669502259,0.69987827539444,0.453859508037567
8.889336585998539,-0.5358427166938781,-0.351445823907852,-1.0750911235809302,0.135455384850502,0.503338158130646
9.71695327758789,-0.270089864730835,0.107078813016415,-0.5276193022727971,-0.162179946899414,0.46760356426239
10.5323076248169,-0.320638239383698,0.0378365069627762,0.13942588865757002,0.0407740548253059,0.358567327260971
12.071640968322802,-0.729960441589355,-0.391675144433975,0.415070712566376,-0.230289414525032,0.17745113372802698
13.6008043289185,-1.3096216917038002,-0.5288137793540949,0.452332407236099,-0.35719293355941795,-0.0600157417356968
13.5859985351562,-1.26505541801453,-0.59671014547348,0.316571593284607,-0.211811289191246,-0.26907822489738503
10.154391288757301,-0.471386075019836,-0.181704968214035,0.189515367150307,0.336729556322098,-0.529299139976501
8.005785942077638,-0.5620142221450811,-0.0273679085075855,0.336576849222183,0.286487370729446,-0.700336396694183
9.302248001098633,-1.33833563327789,-0.392722010612488,0.7580614686012271,-0.5343386530876161,-0.6994200944900509
10.970942497253402,-1.56400871276855,0.174077853560448,1.2227635383606,-1.05920910835266,-0.800973474979401
10.8867444992065,-1.46216416358948,0.131007045507431,1.19863498210907,-0.7317950129508969,-1.11158931255341
8.718997001647951,-1.5454642772674598,-0.4500001966953279,0.4259132444858549,-0.151337414979935,-1.23696565628052
7.60020303726196,-1.50508546829224,0.134596273303032,-0.237161442637444,0.15988926589489005,-1.08043611049652
7.778916835784909,-1.84890413284302,0.496211588382721,-0.1270562261343,0.112854033708572,-0.836708009243011
8.49571704864502,-2.11136698722839,0.321535557508469,0.26907822489738503,-0.14171656966209398,-0.597408592700958
9.38405227661133,-2.18659114837646,-0.222382947802544,0.494786292314529,-0.21501824259758,-0.352917015552521
10.433006286621099,-2.26450753211975,-0.5642575025558471,0.2903051674366,-0.333064466714859,-0.140953004360199
11.770145416259801,-2.8558337688446005,-0.853190839290619,-0.260068207979202,-0.4390464723110201,0.0777303129434586
10.9675025939941,-2.46430826187134,-0.15433706343174,-0.782037198543549,-0.0694838762283325,0.5819846987724301
9.0530948638916,-1.40877437591553,0.231206491589546,-0.940399348735809,0.45049986243248,0.967582046985626
8.17119026184082,-0.635743081569672,-0.216400891542435,-0.8394568562507629,0.754090964794159,1.13052558898926
9.55962562561035,-0.783499836921692,-0.3732803463935849,-0.6355865597724909,0.2667875289916989,0.9932376146316528
10.762916564941401,-1.01769733428955,-0.222382947802544,-0.299620568752289,-0.136066228151321,0.7853968739509579
10.2227363586426,-0.873978495597839,-0.00927218794822693,-0.109188944101334,0.135302662849426,0.663380146026611
9.10992431640625,-0.28878378868103,-0.659521758556366,-0.14675605297088598,0.587024211883545,0.748746037483215
8.8362455368042,0.257228434085846,-2.57363033294678,-0.61817741394043,1.08715546131134,0.807387351989746
9.091230392456053,-0.296859562397003,-0.567398071289062,-1.0466867685318,0.26526042819023105,0.649025201797485
9.501749038696287,-0.215054929256439,0.118743821978569,-0.43538138270378096,-0.492801040410995,0.547471880912781
9.73594665527344,-0.215054929256439,-0.25842484831810003,0.41232189536094704,0.00290152453817427,0.523648798465729
10.5492076873779,-1.02637135982513,-0.7837989926338199,0.630088925361633,-0.167677566409111,0.4961606860160829
12.878919601440401,-1.37826585769653,-0.626769959926605,0.4109475016593929,-0.610236406326294,0.484249174594879
13.966607093811,-0.8165507316589359,-0.49097728729248,0.263733297586441,-0.3970507085323329,0.252890765666962
12.9091281890869,-0.2902792990207669,-0.344117820262909,0.180352658033371,-0.0189362652599812,-0.43660306930542
10.003643989563,-0.73713892698288,-0.565902531147003,0.127361655235291,0.3799470067024229,-1.21024107933044
9.38988494873047,-1.87941265106201,-0.4308576285839079,0.0348182953894138,-0.138356909155846,-1.44786071777344
10.105487823486301,-1.81749832630157,0.50488555431366,0.22876229882240304,-0.623980462551117,-1.12166833877563
10.508977890014599,-1.6215859651565598,0.805932581424713,0.52151083946228,-0.415376126766205,-1.19237387180328
9.059675216674801,-1.43554401397705,0.37462630867958097,0.539378106594086,0.0907108187675476,-1.24902987480164
8.15802955627441,-1.49671053886414,0.11096715182066,0.32206922769546503,0.23456534743309,-1.13861930370331
8.086244583129881,-1.6514962911605802,0.035892341285944,0.280684322118759,0.21303297579288505,-0.988808989524841
8.62806987762451,-2.0869901180267303,-0.0466600432991982,0.3712424337863921,-0.00916270911693573,-0.8674030900001529
8.99462032318115,-2.09371972084045,-0.161665081977844,0.410031229257584,-0.110868774354458,-0.589314877986908
9.84781074523926,-2.2042384147644,-0.355334162712097,0.333828032016754,-0.140036731958389,-0.302980244159698
10.4431753158569,-2.17971181869507,-0.881755173206329,0.14690876007080098,-0.0571142174303532,0.0310004986822605
11.4118194580078,-2.6561827659606903,-1.4814562797546398,-0.3417690396308901,-0.231205686926842,0.323290914297104
10.6322078704834,-2.29023027420044,-0.91495555639267,-0.942537307739258,-0.231052979826927,0.819909751415253
8.05558681488037,-0.96116691827774,0.1162014529109,-1.2398672103881798,0.346961230039597,1.18015694618225
8.207530975341799,-0.627667307853699,0.354137748479843,-1.2259705066680902,0.44897273182869,1.17328488826752
9.79606628417969,-0.7826025485992428,0.19950158894062,-0.866486847400665,0.0684148967266083,1.05416965484619
10.6177015304565,-1.01590275764465,-0.0526420995593071,-0.330162942409515,0.0529909990727901,0.7466080784797672
9.06715297698975,-0.6312565207481379,-0.151346027851105,-0.0849077701568604,0.376740038394928,0.530215442180634
8.335995674133299,-0.251994132995605,-0.500698149204254,-0.28037887811660805,0.33367532491684,0.66551810503006
9.4610710144043,-0.17691932618618,-1.56714928150177,-0.658493340015411,0.343143433332443,0.7175928354263309
10.4401845932007,-0.341575443744659,-0.483798831701279,-0.986060202121735,0.14675605297088598,0.5697677731513979
10.6242818832397,-0.0824028328061104,-0.4310071766376501,-0.7933378815650941,0.16660858690738695,0.308630585670471
10.6450700759888,-0.229710966348648,-0.37986057996749895,-0.456913739442825,0.297635316848755,0.163096219301224
11.984751701355,-0.6248258352279661,-0.489780873060226,-0.280684322118759,-0.104607589542866,0.156376898288727
12.9809131622314,-0.7863413691520691,-0.45702913403511,-0.179283663630486,-0.192569598555565,0.104454882442951
11.9424285888672,-0.355334162712097,-0.0841974467039108,-0.186461120843887,0.00931542087346315,0.0210742298513651
9.52163982391357,0.306879490613937,0.228664115071297,-0.163707062602043,0.20677179098129295,-0.223570093512535
9.42667388916016,-0.13160525262355802,0.601794898509979,0.14935214817523998,-0.125834539532661,-0.438588321208954
10.701300621032699,-0.857976496219635,0.725922584533691,0.650094211101532,-0.642153203487396,-0.614359617233276
10.906635284423801,-0.906431138515472,0.849900722503662,0.99904066324234,-0.5222744345664979,-0.797155678272247
9.68240737915039,-0.851396203041077,0.302542507648468,0.8251019120216371,-0.25594499707222,-1.0036220550537098
8.76550769805908,-0.931256651878357,0.0424726009368896,0.440420866012573,0.0253501608967781,-1.0993723869323702
8.66530799865723,-1.29317104816437,0.114257283508778,0.335507869720459,0.103844031691551,-1.18794524669647
8.83699321746826,-1.76440763473511,0.0834496915340424,0.353375136852264,-0.0500894747674465,-1.11265826225281
9.120991706848141,-1.95792710781097,-0.167198479175568,0.227082461118698,-0.10399674624204598,-0.9168817400932308
9.43549823760986,-2.16146659851074,-0.284147679805756,-0.0635281130671501,-0.0261137206107378,-0.6401679515838621
10.401301383972198,-2.39985156059265,-0.399900496006012,-0.317335158586502,-0.0122169451788068,-0.336271405220032
10.954341888427699,-2.8915765285491903,-0.352343142032623,-0.545792043209076,-0.111479625105858,0.0323749035596848
9.82253742218018,-2.4617657661438,0.33678978681564303,-0.609014689922333,-0.0406213440001011,0.653148412704468
9.05339431762695,-1.24381911754608,0.0770189762115479,-0.4295783340930941,0.0670404881238937,1.12258458137512
8.963663101196289,-0.4102195203304289,-0.369242429733276,-0.260068207979202,0.0555871017277241,1.00957775115967
10.260871887207001,-0.6465107798576349,-0.8373383879661559,-0.34268531203270003,-0.0477987974882126,0.54777729511261
10.2619190216064,-0.96161562204361,-0.8913264274597171,-0.6905628442764279,0.104607589542866,0.35413870215416
9.30568695068359,-0.830758094787598,-0.560219585895538,-0.8735115528106691,0.458746284246445,0.512348115444183
8.3832540512085,0.014656038954853998,-0.653838813304901,-0.7001836895942691,0.551289677619934,0.7537854909896851
8.81336402893066,0.8132606148719791,-2.21515560150146,-0.584275424480438,0.6652126908302309,0.757603287696838
9.8030948638916,0.29805597662925704,-1.62233376502991,-0.8554915785789491,0.17867282032966605,0.47814068198204
9.74985504150391,-0.0617647357285023,0.137138649821281,-0.672848284244537,-0.477224409580231,0.27976804971694896
10.0390872955322,-0.24885354936122894,0.6008976101875311,-0.0137440636754036,-0.237008735537529,0.380710542201996
11.3916301727295,-0.300299227237701,-0.0979561805725098,0.3643703758716579,-0.185850277543068,0.458746284246445
12.6507034301758,-0.287587374448776,-0.583549618721008,0.34894648194313,-0.238841280341148,0.293970257043839
13.558629989624,-0.533001244068146,-0.768544733524323,0.146450623869896,-0.2971771955490109,-0.00229067727923393
11.396715164184599,-0.035892341285944,-0.43713879585266097,-0.0777303129434586,0.19547112286090895,-0.208451628684998
9.26022338867188,0.15418751537799802,-0.121734850108624,-0.113617591559887,0.26892551779747004,-0.414459854364395
10.5514507293701,-0.761067152023315,-0.24690937995910606,0.141105711460114,-0.375365644693375,-0.59527063369751
11.0358476638794,-1.1470593214035,0.0381356105208397,0.567935228347778,-0.476613581180573,-0.7832589149475101
9.935747146606447,-1.1168500185012802,0.35682967305183394,0.7360709309577941,-0.227387890219688,-0.9895725846290592
8.48719215393066,-0.9019445776939392,-0.158823609352112,0.570989489555359,0.0574196428060532,-0.97949355840683
8.26451015472412,-1.00588285923004,-0.2976073026657101,0.424844264984131,0.15469707548618306,-1.00743985176086
8.48435115814209,-1.55623197555542,-0.589083015918732,0.430494606494904,0.0673459097743034,-1.09631812572479
8.62747192382812,-1.9996520280838,-0.909870803356171,0.274423122406006,-0.0652079433202744,-1.00209498405457
8.80259609222412,-2.06515550613403,-0.8072785139083859,-0.189515367150307,-0.124460130929947,-0.628714561462402
8.98549747467041,-2.2337000370025604,-0.43489551544189503,-0.6313106417655939,0.0013744062744081,-0.227082461118698
9.05040264129639,-2.36126732826233,-0.0592223592102528,-0.743095695972443,0.0314586348831654,0.273354142904282
11.333155632019,-2.86675119400024,-0.261266320943832,-0.655286371707916,-0.4164451062679289,0.85518616437912
11.5891876220703,-2.334796667099,0.0109172528609633,-0.5233433842659,-0.34054735302925104,1.39929831027985
9.16211795806885,-0.612861692905426,0.497258454561234,-0.405449867248535,0.285876512527466,1.634321808815
9.38240718841553,0.0665503814816475,0.292522579431534,-0.290763288736343,0.474322885274887,1.32095718383789
11.196316719055199,-0.38644084334373496,-0.576670229434967,-0.0849077701568604,0.22876229882240304,0.6746807694435121
10.851600646972699,-1.10802638530731,-0.732801914215088,0.0,0.206466376781464,0.14431266486644698
8.419445991516112,-0.664905607700348,-0.41321057081222495,-0.178367406129837,0.42133188247680703,0.27885177731514005
8.1828556060791,-0.443419933319092,-0.22986052930355105,-0.361621588468552,0.273048728704453,0.682927250862122
8.83609580993652,-0.12547363340854598,-0.348454803228378,-0.14171656966209398,0.0997208133339882,0.846939742565155
9.45628547668457,0.12831512093544,-0.366251409053802,0.206466376781464,-0.0658187940716743,0.767682313919067
9.93350410461426,0.283699035644531,-0.471386075019836,0.359483599662781,-0.120184198021889,0.536018490791321
11.136495590210002,-0.170189514756203,-0.479162722826004,0.35352784395217896,-0.18630841374397306,0.307561606168747
12.2979116439819,-0.829262614250183,-0.594915509223938,0.27640837430954,-0.17561858892440804,0.0700947195291519
13.595419883728,-1.38993084430695,-0.408424913883209,0.0690257400274277,-0.295497357845306,-0.0962084457278252
12.859328269958501,-0.8690432906150821,0.22821545600891105,-0.10521844029426597,-0.019088976085186,-0.342227190732956
9.65309524536133,-0.606580555438995,0.323928356170654,-0.129957750439644,0.468061715364456,-0.8015843033790592
9.14282608032227,-1.4780166149139398,0.243021056056023,0.0613901503384113,0.143854528665543,-0.908482611179352
10.367651939392099,-2.3304595947265603,0.7956135272979741,0.538156449794769,-0.6574243903160101,-0.8147175312042241
10.51780128479,-1.93743860721588,1.76575350761414,1.29469072818756,-0.919172406196594,-0.805402100086212
9.182905197143553,-1.31141638755798,1.5885351896286002,1.91317355632782,-0.529604554176331,-0.947576820850372
8.12288475036621,-1.17771744728088,0.7438687682151791,2.0503089427948,-0.39338564872741705,-0.94009393453598
8.04646396636963,-1.47068858146667,0.276371002197266,1.92539060115814,-0.588245928287506,-0.914132952690125
9.059675216674801,-1.72298181056976,-0.2757728099823,1.62851881980896,-0.678956747055054,-0.790283620357513
9.430562973022461,-1.59466671943665,-0.5801099538803101,0.986823737621307,-0.4517215490341189,-0.653453826904297
9.59701347351074,-1.7917754650116,-0.5451149344444269,0.20356485247612,-0.190126210451126,-0.607793033123016
10.7315101623535,-2.46385955810547,-0.373878538608551,-0.33321717381477395,-0.109036237001419,-0.443475097417831
11.722288131713901,-3.24870538711548,-0.219691023230553,-0.6496360301971441,-0.0977355614304543,-0.0671931952238083
10.220193862915,-2.51665115356445,0.764805912971497,-0.551442384719849,0.317793279886246,0.589009463787079
7.80463981628418,-1.01620185375214,0.32916265726089505,-0.0432174429297447,1.05233716964722,1.07600748538971
8.62881755828857,-0.782004356384277,-0.579362154006958,0.36391225457191495,1.20168924331665,1.01599168777466
10.3115701675415,-1.53649127483368,-1.6136597394943202,0.3901786804199221,0.421179175376892,0.443016976118088
10.0326566696167,-1.7733806371688798,-1.30289196968079,0.109341658651829,-0.0971247106790543,0.128736063838005
8.40359306335449,-1.4202897548675502,-0.828664362430573,-0.31473904848098805,0.13957859575748402,0.426371395587921
8.35453987121582,-0.819840848445892,-1.27687001228333,-0.921921253204346,0.717745542526245,0.9611681699752808
8.98295497894287,-0.709322333335876,-0.494416981935501,-1.26139962673187,0.398119688034058,1.15648663043976
9.41186904907227,-0.362363070249557,0.3734298944473271,-0.874885976314545,0.0752869248390198,1.19756603240967
10.1863956451416,-0.20653051137924205,0.8117650747299191,-0.151490122079849,0.105829291045666,0.893516838550568
10.8640127182007,-0.33993035554885903,0.911814987659454,0.337798535823822,-0.18096350133419,0.6636855602264399
13.294074058532699,-0.906281590461731,0.937537848949432,0.514180660247803,-0.744470119476318,0.5596888065338129
15.0474147796631,-1.2336496114730802,0.5799604058265689,0.633448600769043,-0.753632783889771,0.261442631483078
12.067303657531701,-0.23060828447341894,0.228813663125038,0.6332958936691279,0.0007635590736754241,-0.124001994729042
8.761768341064451,0.29012975096702603,0.3439682424068449,0.7036960124969479,0.249225676059723,-0.5176930427551271
8.97577667236328,-0.8991031050682071,0.464207589626312,1.00728714466095,-0.480431377887726,-0.822658538818359
10.1810121536255,-1.84815633296967,1.25623190402985,1.55903494358063,-1.2285665273666395,-0.891531586647034
10.28480052948,-1.65762794017792,1.76889419555664,2.15033507347107,-1.32691299915314,-0.8799254894256591
9.14387226104736,-1.24845516681671,1.20478618144989,2.29632759094238,-0.929709553718567,-0.951241910457611
8.738438606262209,-1.30408835411072,0.709621489048004,2.03274703025818,-0.7695148587226871,-0.963611543178558
9.13116073608398,-1.69142651557922,0.691974401473999,1.7913095951080302,-0.8626690506935121,-0.977355599403381
9.34771156311035,-1.8747764825820905,0.508474826812744,1.54529082775116,-0.903748512268066,-0.923295617103577
10.122836112976099,-1.8683458566665605,0.153888404369354,1.05416965484619,-0.824032962322235,-0.797308385372162
11.1601247787476,-2.29127717018127,-0.293868541717529,0.3555130958557129,-0.4883723855018621,-0.748746037483215
11.3398857116699,-2.86166644096375,-0.291924357414246,-0.473101198673248,-0.17592400312423698,-0.651621341705322
10.0838031768799,-2.62881469726562,0.456879585981369,-0.9604045748710628,0.29778802394866905,-0.220057725906372
7.992027759551999,-1.6043876409530602,1.2032907009124798,-0.754243671894073,0.930625796318054,0.238688573241234
7.817351341247559,-1.54396879673004,1.03085792064667,-0.124307416379452,0.988503575325012,0.342532604932785
9.16660404205322,-2.31385946273804,0.0592223592102528,0.550067961215973,0.635739266872406,0.268620073795319
9.52298545837402,-2.35633206367493,-0.0764207765460014,1.04638135433197,0.3454341292381289,0.581831991672516
9.295816421508787,-1.91380941867828,0.0527916513383389,1.3962441682815598,0.330773800611496,0.991099655628204
9.27084159851074,-1.44212424755096,-0.256929337978363,1.67570674419403,0.302674829959869,1.2293300628662098
9.73280620574951,-1.05927264690399,-0.7954639792442321,1.90798139572144,0.131943002343178,1.24796092510223
9.808329582214359,-0.6192924380302429,-1.22213411331177,1.93348431587219,0.0129805039614439,1.08150506019592
9.62168979644775,-0.142372950911522,-1.41026985645294,1.70945608615875,-0.0166455879807472,0.885117650032043
10.232457160949698,-0.214905381202698,-1.39770758152008,1.37471175193787,-0.11514470726251598,0.6152759194374079
11.590832710266099,-0.5715855360031129,-1.0760223865509,1.1294566392898602,-0.31993123888969394,0.35642936825752297
13.099357604980499,-0.8694919347763058,-0.570239543914795,0.9970554113388058,-0.501505613327026,0.13560809195041698
14.0336055755615,-1.14765751361847,-0.14925231039524098,0.9087880253791808,-0.5121954083442689,-0.16645587980747198
12.619447708129899,-0.8231309652328491,0.0508474819362164,0.880689024925232,-0.284349411725998,-0.486997991800308
9.78260707855225,-0.212213456630707,0.175124704837799,0.91245311498642,0.0,-0.787840247154236
9.84990501403809,-1.10010015964508,0.812512814998627,0.977813720703125,-0.651774048805237,-1.12487518787384
10.0199451446533,-1.67467677593231,1.48175537586212,1.28858232498169,-1.02759778499603,-1.2282611131668102
9.44551753997803,-1.66974151134491,1.9941185712814296,1.60591745376587,-1.0207257270813,-1.1092985868454
8.92208766937256,-1.60588312149048,1.88524508476257,1.85605943202972,-0.870151937007904,-1.06027817726135
8.3294153213501,-1.59556400775909,1.4249259233474698,1.93149900436401,-0.6821636557579039,-1.03248453140259
8.30279541015625,-1.7198412418365498,1.03833544254303,1.7525207996368402,-0.6587987542152399,-0.9013051390647892
8.73814010620117,-1.79970169067383,0.8361419439315799,1.3440166711807298,-0.5766398310661321,-0.730267882347107
9.009575843811039,-2.0294127464294403,0.6011967062950129,0.851368367671967,-0.34070006012916604,-0.5920637249946589
10.063164710998501,-2.2993531227111803,0.223429813981056,0.43431240320205705,-0.19913621246814706,-0.339325666427612
11.3756284713745,-2.55403900146484,-0.256779789924622,-0.0444391369819641,-0.0988045409321785,-0.120947755873203
10.7926769256592,-2.67697024345398,0.0749252587556839,-0.7366818189620971,0.107356406748295,0.025808297097683
10.395318984985401,-2.24641180038452,1.03399848937988,-0.9098569750785832,0.5317425131797789,0.5544965863227839
8.70658397674561,-1.14855492115021,1.3145569562911998,-0.360552608966827,1.2293300628662098,0.916118204593658
9.07612609863281,-1.3335499763488798,0.435045063495636,0.28740364313125605,1.31530690193176,0.760199427604675
9.61720275878906,-1.73913335800171,-0.557976305484772,0.7142331600189209,0.95337986946106,0.6499415040016171
10.0334043502808,-1.79955220222473,-0.8842974901199341,0.961626291275024,0.5143333673477171,0.841289401054382
9.44776153564453,-1.22512519359589,-0.947557747364044,1.08700275421143,0.481194913387299,1.03492796421051
9.26366329193115,-0.765852808952332,-1.0894820690155,1.04271626472473,0.3796415627002721,1.09295845031738
9.702596664428713,-0.5169992446899411,-1.16590285301208,0.927877008914948,0.189515367150307,1.07325863838196
10.167103767395,-0.303888469934464,-1.16590285301208,0.893974959850311,0.0132859274744987,0.911078691482544
9.80982494354248,-0.000598205660935491,-1.25578320026398,0.880536317825317,0.0453554093837738,0.6995728015899662
9.88534832000732,-0.148055896162987,-1.05149602890015,0.8150229454040531,-0.172258928418159,0.475239157676697
11.3099756240845,-0.704686284065247,-0.617348253726959,0.8124268651008609,-0.5729747414588929,0.323901772499084
13.659727096557601,-1.31440734863281,-0.0608674250543118,0.891989707946777,-1.02026760578156,0.18325418233871504
14.3863973617554,-1.09950196743011,0.268295228481293,0.8950439691543579,-1.07814538478851,-0.00152711814735085
12.071042060852099,-0.140279233455658,0.7205387353897091,0.8167027831077579,-0.5143333673477171,-0.452943235635757
9.57487964630127,-0.369242429733276,0.80144602060318,0.774096190929413,-0.17454960942268394,-1.03324818611145
9.76720333099365,-1.37108743190765,0.8862416744232181,0.9060391783714292,-0.6139014959335329,-1.09830331802368
10.2023973464966,-1.55638158321381,1.3443176746368402,1.29911935329437,-0.984533071517944,-0.948798477649689
9.8349494934082,-1.32951211929321,1.38768756389618,1.4785557985305802,-1.09876155853271,-0.96452784538269
9.05459022521973,-0.987637519836426,1.1099705696106,1.310267329216,-0.7437065243721009,-1.02103114128113
8.85464000701904,-1.06181502342224,1.00334048271179,1.00041508674622,-0.498298645019531,-1.16595470905304
9.8525972366333,-1.85623216629028,0.396909445524216,0.718356370925903,-0.35490226745605497,-1.34676551818848
9.62841892242432,-2.6392834186554,-0.52043890953064,0.18768282234668696,-0.111937761306763,-1.39929831027985
8.88978481292725,-2.747109889984129,-0.671037197113037,-0.5308262705802921,-0.0476460866630077,-0.991099655628204
9.19920635223389,-2.54611277580261,0.0840478986501694,-0.910467863082886,-0.00870457384735346,-0.7168292403221129
9.93649482727051,-2.94571423530579,0.0674476847052574,-0.960099160671234,-0.0142021989449859,-0.56579726934433
11.250753402710002,-3.2573792934417702,-0.0749252587556839,-1.1705360412597698,-0.218530610203743,0.0262664314359426
8.49003410339355,-1.95388925075531,0.684795916080475,-1.151447057724,0.3454341292381289,0.656660795211792
7.13749074935913,-0.6794120669364929,0.8847461938858029,-0.7375980615615841,0.733169436454773,1.29438531398773
9.80429172515869,-0.7779664397239691,0.335892468690872,-0.0969720035791397,0.205091968178749,1.57277894020081
11.2544918060303,-0.702742099761963,-0.6729813814163211,0.754854500293732,-0.0893364101648331,1.3785295486450202
9.85723304748535,-0.430558532476425,-1.33983111381531,1.2922474145889298,0.295650064945221,1.04745030403137
8.33689308166504,0.0233300216495991,-1.57103765010834,1.19832956790924,0.358872771263123,1.2122263908386202
9.01151943206787,0.19905292987823495,-1.9187446832656896,0.8090671896934509,-0.0500894747674465,1.4290771484375
10.2347002029419,0.315553486347198,-1.77771770954132,0.5415160655975341,-0.29122143983840904,1.24582302570343
10.2858476638794,0.6596713066101071,-1.49925291538239,0.446071207523346,-0.22998400032520305,1.00637090206146
11.372637748718299,0.471685171127319,-1.02083790302277,0.3710896968841551,-0.35062631964683505,0.659867763519287
12.5093774795532,0.12831512093544,-0.8394321203231808,0.355207681655884,-0.461342394351959,0.247698560357094
12.940235137939501,-0.290727943181992,-0.296710014343262,0.32130566239357,-0.297635316848755,-0.15087927877902998
13.2997570037842,-0.740429043769836,-0.0188434775918722,0.26571854948997503,-0.372464120388031,-0.44714018702507
11.035548210144,-0.112313114106655,0.343220502138138,0.406824260950089,0.196081966161728,-0.640320658683777
9.68988513946533,-0.264107793569565,0.484845697879791,0.6821636557579039,0.0711637064814568,-0.920088708400726
11.621341705322301,-1.24441730976105,0.21475583314895605,1.03294277191162,-0.6911736726760861,-1.0628741979599
11.724980354309098,-1.16979122161865,0.357278317213058,1.2905675172805802,-0.5372401475906371,-1.30156278610229
10.1796655654907,-1.19775724411011,0.319740921258926,1.079061627388,-0.321763783693314,-1.6555488109588603
8.67772102355957,-1.41251313686371,0.253489643335342,0.638640820980072,-0.0442864261567593,-1.7207567691802998
8.05289459228516,-1.50194489955902,1.12866449356079,0.705528557300568,0.0154238929972053,-1.52727091312408
8.97308444976807,-1.76365983486176,1.12791681289673,1.1742011308670002,-0.193944007158279,-1.30980920791626
9.274431228637699,-2.07562398910522,0.419043064117432,1.4887875318527202,-0.17042638361454002,-1.2152806520461998
8.96037292480469,-2.09760808944702,-0.30867412686348,1.33424317836761,-0.0604738779366016,-0.88313239812851
9.45553779602051,-2.17103791236877,-0.81699937582016,0.859309375286102,0.0439810007810593,-0.5352548956871029
9.56291580200195,-2.3663520812988303,-1.1271690130233798,0.292901247739792,0.247545853257179,-0.241742804646492
10.4573831558228,-3.00867533683777,-1.1929715871810902,-0.317487865686417,0.109494373202324,0.28694549202919
9.83016395568848,-2.48060941696167,-0.486341208219528,-0.623216927051544,0.249072968959808,1.07524383068085
8.01386260986328,-0.91914302110672,-0.353090882301331,-0.559077978134155,0.77027839422226,1.60927712917328
9.61555767059326,-0.8434699773788449,-0.696909606456757,-0.441031724214554,0.6413896083831789,1.5298669338226298
11.3744316101074,-1.03803634643555,-0.7625626921653751,-0.197150945663452,0.0229067727923393,1.18840336799622
11.1598253250122,-1.09860467910767,-0.5684449076652529,0.0975828468799591,0.108119964599609,0.884354114532471
8.92418193817139,-0.605384111404419,-0.4320540428161621,0.136524364352226,0.6129852533340451,0.9003888368606571
8.111818313598631,-0.256779789924622,-0.7236793041229251,0.0554343871772289,0.575265407562256,1.2122263908386202
9.3523473739624,-0.3269194066524509,-1.1289635896682702,0.0934596285223961,0.24937839806079895,1.3351594209671
