ax,ay,az,wx,wy,wz
8.478817939758299,-3.36969256401062,-0.361465781927109,0.0193943995982409,-0.167066723108292,0.0242811776697636
8.65543746948242,-3.35339140892029,-0.903440117835999,-0.346197694540024,0.209520608186722,0.91245311498642
8.51485919952393,-2.5851457118988,-0.356081932783127,-0.896265625953674,0.5031854510307311,1.8757592439651496
10.483853340148901,-2.55598330497742,-0.24690937995910606,-1.15602838993073,0.684301614761353,2.41361021995544
12.164511680603,-2.5683960914611803,-0.0915254652500153,-1.0196567773819,0.42530241608619707,2.3786392211914102
11.928968429565401,-1.82826602458954,-0.0484546571969986,-0.5415160655975341,0.112701319158077,2.29525852203369
10.421640396118198,-0.844217717647552,-0.18619151413440696,-0.0503949001431465,0.557856261730194,2.04526925086975
9.34232711791992,-0.0495015196502209,-1.04626166820526,0.0325276181101799,0.717287421226501,1.6764702796936002
9.59252643585205,-0.036939200013876,-1.27537441253662,-0.0380252413451672,0.684454381465912,1.31790292263031
10.4190979003906,-0.375523597002029,-1.1703894138336202,-0.126750811934471,0.230289414525032,0.830599546432495
10.6005029678345,-0.40588253736496,-0.96370929479599,-0.237772300839424,0.00442864280194044,0.528993725776672
11.2941226959229,-0.575772941112518,-0.392871558666229,-0.35444411635398904,0.221279412508011,0.43996274471283
12.957881927490199,-1.04745817184448,-0.145962178707123,-0.19547112286090895,-0.0739125162363052,0.142938256263733
14.3386907577515,-2.0074286460876496,0.289980202913284,0.251058220863342,-0.26220619678497303,-0.273201435804367
13.867304801940902,-2.23011064529419,0.183499589562416,0.591147422790527,-0.4511106908321379,-0.6594096422195429
11.0940227508545,-1.42567360401154,0.362811744213104,0.78646582365036,-0.29855158925056496,-0.769056677818298
10.2439727783203,-1.8795621395111104,0.6192924380302429,1.0314155817031898,-0.152100965380669,-0.92375373840332
11.499157905578599,-2.59127736091614,0.685693264007568,1.30324268341064,-1.07234239578247,-1.26979875564575
11.304142951965304,-2.15937280654907,0.5478068590164179,1.62775528430939,-1.25651276111603,-1.3962441682815598
9.62258625030518,-2.02387928962708,0.342472732067108,1.44724988937378,-0.6888830065727231,-1.70930337905884
8.26974487304688,-2.14681053161621,0.151495590806007,0.6995728015899662,-0.43431240320205705,-2.12162518501282
7.91755104064941,-2.4937698841095,0.6204888224601751,0.13820418715476998,-0.191958755254745,-2.18377900123596
7.93310451507568,-2.80408906936646,0.7366902828216549,0.0497840531170368,-0.283891260623932,-2.0718412399292
8.266604423522951,-3.036940574646,0.745214700698853,0.13026317954063402,-0.39598172903060896,-1.73862397670746
8.499156951904299,-3.2633614540100098,0.524925470352173,0.184781298041344,-0.27610296010971097,-1.25147330760956
8.33644485473633,-3.4326536655426003,0.475723057985306,0.0621537081897259,-0.202190443873405,-0.65727162361145
9.107232093811039,-3.63320207595825,0.0279661137610674,-0.19547112286090895,0.0659715011715889,0.232885524630547
8.657680511474611,-2.8392336368560804,-0.22028923034668,-0.5386145710945129,0.4883723855018621,1.26185774803162
8.95304489135742,-2.01041960716248,0.125024989247322,-0.9417737722396852,1.14152085781097,2.0982604026794403
9.99796104431152,-1.94282245635986,-0.0436690114438534,-1.0466867685318,1.1425898075103798,2.20806002616882
11.9799652099609,-2.40673089027405,-0.106929264962673,-0.566713571548462,0.51005744934082,2.1851532459259
11.3359975814819,-2.03943276405334,0.109022982418537,-0.08368607610464099,0.0652079433202744,2.02068281173706
9.9931755065918,-1.03848505020142,-0.240179568529129,0.203717559576035,0.0862821787595749,2.01594877243042
9.90209865570068,0.008973085321486,-0.6871887445449829,0.250141948461533,0.283127695322037,2.06069326400757
10.5384397506714,0.278165638446808,-0.664606511592865,0.28938889503479,0.25594499707222,1.68181526660919
10.7672529220581,-0.0278165638446808,-0.579362154006958,0.3596363365650179,-0.182490617036819,0.998582541942596
10.919197082519501,-0.596859693527222,-0.516401052474976,0.486692547798157,-0.346197694540024,0.5253286361694339
11.941979408264196,-1.1198409795761102,-0.422034084796906,0.632837772369385,-0.46943610906601,0.289999723434448
12.622588157653801,-1.4789139032363898,-0.18095721304416695,0.7817317843437191,-0.5468609929084779,0.0305423624813557
14.2211427688599,-2.2788643836975098,0.17751753330230702,0.7713474035263058,-0.754090964794159,-0.34268531203270003
12.9988594055176,-1.84800684452057,0.216999098658562,0.6882721781730649,-0.950631022453308,-0.696060478687286
10.6740827560425,-1.5038890838623,0.578016221523285,0.7600467205047611,-0.436450362205505,-0.883590579032898
11.241032600402804,-2.44920349121094,0.567248523235321,0.952463567256927,-0.691784501075745,-1.2922474145889298
11.5963659286499,-2.80543494224548,0.4470091760158541,1.16488575935364,-1.31393241882324,-1.62286841869354
10.6317596435547,-2.48644185066223,0.588185727596283,1.1270132064819298,-1.1425898075103798,-1.6682238578796398
8.9893856048584,-2.21246361732483,0.433848649263382,0.5809157490730289,-0.664143681526184,-1.80199944972992
8.057681083679201,-2.23011064529419,0.589531660079956,-0.0561979487538338,-0.0893364101648331,-1.8678182363510096
8.30877780914307,-2.52382969856262,1.00932252407074,-0.341158181428909,0.102316915988922,-1.85178351402283
8.32193851470947,-2.86719965934753,1.1469098329544098,-0.23823043704032895,0.0760504826903343,-1.87820255756378
8.30892753601074,-3.1615169048309304,1.02577316761017,-0.0366508364677429,0.0468825288116932,-1.71953499317169
8.30399227142334,-3.3384361267089804,0.957278609275818,0.0464243926107883,0.0103844031691551,-1.25574922561646
8.534899711608888,-3.3456146717071498,0.632901608943939,0.0978882759809494,-0.0603211671113968,-0.528077483177185
9.428468704223633,-3.7084264755249,0.137437745928764,0.0584886260330677,-0.0265718549489975,0.221279412508011
9.51565742492676,-2.84581398963928,-0.8630611896514889,-0.19562382996082295,-0.12369657307863198,1.1363285779953
8.831010818481449,-1.98484635353088,0.214456722140312,-0.5282301902770999,0.42698222398757896,1.92203092575073
9.73220825195312,-2.37009072303772,0.6545865535736078,-0.8452599048614499,0.563506603240967,1.91867125034332
10.8816604614258,-2.31027030944824,0.666251540184021,-0.5691569447517401,0.4753918647766111,2.15461111068726
10.4880409240723,-1.72522509098053,0.17003995180129994,0.3089359998703,0.5216635465621949,2.37268352508545
9.93185901641846,-1.13599252700806,-0.975822985172272,1.17817163467407,0.34054735302925104,2.3943686485290496
10.7010021209717,-0.538833737373352,-1.78504574298859,1.47412717342377,0.124001994729042,2.29571676254272
11.5891876220703,0.0813559666275978,-2.0644078254699703,1.15648663043976,-0.0962084457278252,1.92401611804962
11.8175525665283,0.577717125415802,-1.2225828170776398,0.6071822047233579,-0.161416381597519,1.3763915300369298
12.024681091308599,-0.00747757079079747,-0.732652366161346,0.384528338909149,-0.113312169909477,0.585497081279755
12.184103012084998,-1.36002051830292,-0.594616413116455,0.5233433842659,-0.331384629011154,-0.24479703605175
12.6142129898071,-2.21395921707153,0.112462662160397,0.68201094865799,-0.674222648143768,-0.508835792541504
13.2538442611694,-2.59890460968018,0.8304589986801151,0.869388341903687,-0.9113841056823728,-0.5832064151763922
11.973534584045401,-1.93803679943085,0.737737119197845,1.1401463747024498,-1.03859305381775,-0.594965219497681
10.6190481185913,-1.82841563224792,0.7505985498428341,1.58438503742218,-0.632532358169556,-0.685217916965485
11.0862464904785,-2.7180969715118395,0.875473976135254,1.7957382202148402,-1.15511214733124,-1.10135757923126
10.9094762802124,-2.46924352645874,0.8304589986801151,1.91286814212799,-1.79085147380829,-1.2659809589386002
9.935747146606447,-1.89242362976074,0.7894819378852841,1.83391618728638,-1.4248012304306,-1.3037008047103895
8.95663452148438,-1.82946240901947,0.482004225254059,1.18763983249664,-1.02790319919586,-1.6676130294799798
9.023932456970213,-2.36022043228149,0.6355935335159301,0.3988832533359529,-0.6285618543624879,-1.95333683490753
9.76181888580322,-3.0384361743927,1.03803634643555,-0.0841442123055458,-0.45798271894455,-2.05076694488525
9.5087776184082,-3.22058963775635,1.22348010540009,-0.24113196134567305,-0.35352784395217896,-2.00296807289124
9.29925632476807,-3.45000171661377,1.20134651660919,-0.25655585527420005,-0.0242811776697636,-1.78092515468597
9.21117115020752,-3.8425741195678698,1.22452700138092,-0.295497357845306,0.176534861326218,-1.4556490182876598
9.20488929748535,-4.01171684265137,1.15962171554565,-0.286181926727295,0.251363635063171,-0.846328854560852
7.8991560935974094,-3.53823685646057,1.11400854587555,-0.189668074250221,0.514180660247803,0.0291679557412863
6.88280487060547,-2.46116757392883,0.677168786525726,-0.144770801067352,0.9791881442070012,1.05355882644653
8.94437122344971,-2.30159616470337,-0.861864805221558,0.000458135444205254,1.4866495132446298,1.81559073925018
10.2990074157715,-2.68624258041382,-1.39606249332428,0.0792574286460876,1.08440661430359,1.94845008850098
10.507183074951199,-2.68220472335815,-0.4003491401672361,0.128736063838005,0.311684817075729,2.08558535575867
9.71934604644775,-2.53833627700806,0.0541376136243343,0.374143958091736,0.41797223687171897,2.1646900177002
9.95444107055664,-1.93594312667847,0.0909272581338882,0.339631080627441,0.620926260948181,2.53058743476868
10.6094760894775,-1.06779706478119,-0.8813064694404599,0.487303406000137,0.5343386530876161,2.66573739051819
11.280214309692399,-0.297756880521774,-1.1098210811615,0.7348492741584781,0.252432644367218,2.38703846931458
12.302248954772901,0.30209386348724393,-0.8306085467338559,0.847397863864899,-0.3920112252235409,1.77420592308044
13.640733718872099,-0.357128769159317,-0.7513462901115421,0.978424608707428,-0.7675296068191529,0.901152431964874
13.4331569671631,-1.2530913352966295,-0.954437136650085,1.00072050094604,-0.8134958148002621,0.009773556143045429
14.256885528564501,-2.51620244979858,-0.133549407124519,0.738514363765717,-0.694686055183411,-0.44622391462326
13.227822303772,-2.537737846374509,0.301346093416214,0.6129852533340451,-0.8130376935005191,-0.7693621516227719
10.5140628814697,-2.03958225250244,1.00977110862732,0.8084563612937931,-0.5089884996414179,-0.86511242389679
10.749606132507301,-3.0469605922699,1.15947210788727,1.09616541862488,-0.86999922990799,-1.18595993518829
11.5108232498169,-3.58788800239563,1.75692999362946,1.38753950595856,-1.9777706861496,-1.39822936058044
10.742128372192399,-3.03380012512207,2.14352035522461,1.8201720714569096,-2.3242738246917702,-1.3148487806320202
9.28639507293701,-2.24207472801208,1.3202399015426598,1.7442743778228798,-2.01274180412292,-1.4076975584030198
8.263463020324709,-1.9947167634964,0.6113662123680109,1.04729759693146,-1.08898794651031,-1.56896114349365
8.4249792098999,-2.34601306915283,0.767946541309357,0.206466376781464,-0.638182699680328,-1.73327910900116
8.7472620010376,-2.73679089546204,1.03998053073883,-0.222501114010811,-0.544875741004944,-1.77130436897278
8.78644466400146,-3.0749266147613503,1.08978116512299,-0.390942245721817,-0.499367624521255,-1.75465869903564
8.580661773681639,-3.3619158267974902,1.00573325157166,-0.585802495479584,-0.38666632771492,-1.60484850406647
8.612216949462889,-3.37582421302795,1.52497577667236,-0.835180938243866,0.007788302376866341,-1.07890892028809
8.224879264831541,-3.71485710144043,1.67452716827393,-0.9159654378890992,0.7808154821395871,-0.4326325654983521
7.982007503509519,-2.93913388252258,1.54097783565521,-0.8768712282180791,1.2659809589386002,0.6716265678405761
7.817501068115232,-2.05304193496704,0.691675305366516,-0.560910522937775,1.84124636650085,1.6951011419296298
10.3779706954956,-2.45473694801331,0.0426221527159214,-0.119878776371479,1.74244177341461,2.1593451499939
11.6508026123047,-2.5766212940216096,0.20204396545887,0.214407384395599,0.508683025836945,1.88660180568695
11.0204439163208,-2.3074288368225098,0.19905292987823495,0.543654084205627,-0.0186308417469263,1.62683892250061
10.1747303009033,-1.78938269615173,-0.20264217257499695,0.650857746601105,0.298704296350479,1.8052064180374097
9.88235759735107,-1.45020008087158,-0.704387187957764,0.751036703586578,0.51677680015564,1.8621678352356
10.4475126266479,-1.20448708534241,-0.9451649188995358,0.7948650121688839,0.0827698037028313,1.76091992855072
10.4934244155884,-0.8585746884346009,-0.8161020874977108,0.7887565493583679,-0.1608055382967,1.53689169883728
11.088489532470698,-0.8856434822082521,-0.460020154714584,0.781120955944061,-0.300231426954269,1.29010939598083
12.3106241226196,-0.998704373836517,-0.264257341623306,0.969414591789246,-0.667350649833679,0.923295617103577
13.1681518554688,-0.964606642723083,0.153439745306969,1.1913049221038798,-0.965596795082092,0.4825693368911741
13.9117212295532,-1.76365983486176,0.580708146095276,1.1644276380538898,-1.07631289958954,-0.18279604613781
12.790085792541499,-1.97452735900879,0.728913605213165,0.8773293495178219,-1.20917212963104,-0.759588539600372
9.98240756988525,-1.62726891040802,1.28988099098206,0.753021955490112,-0.7646280527114871,-0.914743781089783
9.27846908569336,-2.26181554794312,1.6519448757171598,0.9119949340820308,-0.514486074447632,-1.00469100475311
10.237542152404801,-2.5932214260101296,1.70518529415131,1.23345327377319,-1.18321108818054,-0.971247136592865
10.7726373672485,-2.3464617729187003,1.84008061885834,1.75939285755157,-1.42464852333069,-0.8522846102714542
10.0251789093018,-1.90049934387207,1.36211431026459,1.83681774139404,-1.38631784915924,-1.05951452255249
9.28310489654541,-2.0240287780761697,0.977916717529297,1.36417460441589,-1.03202641010284,-1.46160483360291
9.55229759216309,-2.51919364929199,1.0235298871994,0.7463026642799381,-0.787076711654663,-1.7453433275222798
9.64890766143799,-3.02946305274963,1.24561369419098,0.3706315755844121,-0.648719787597656,-1.89912414550781
9.289834976196287,-3.11874532699585,1.13808631896973,0.171953499317169,-0.531284391880035,-1.84750747680664
9.21790027618408,-3.43355083465576,0.909123063087463,0.0778830274939537,-0.293664813041687,-1.6633371114730802
9.34980487823486,-3.69077944755554,0.87921279668808,-0.121405892074108,-0.260831773281097,-1.3401988744735702
8.903693199157711,-3.80189609527588,0.6865905523300171,-0.245255172252655,0.0288625322282314,-0.7898254990577701
7.50897645950317,-2.8136603832244904,0.9216853976249691,-0.352764278650284,0.576028943061829,0.157445877790451
7.385596752166751,-1.94940268993378,0.34905299544334395,-0.27854636311531106,1.2047435045242298,1.00423288345337
9.42802047729492,-2.189133644104,-1.21331059932709,-0.100026234984398,1.5917152166366595,1.28888773918152
10.3296661376953,-2.3077278137207,-1.10832548141479,-0.4228590130805971,1.15633380413055,1.31133639812469
10.0552387237549,-1.8052351474762,-0.248404905200005,-0.7133168578147892,0.6105418205261229,1.56499063968658
8.77343368530273,-1.29735851287842,0.11994023621082303,-0.645207405090332,0.922532081604004,1.77130436897278
9.47288608551025,-0.94606226682663,0.236141681671143,-0.7258392572402951,0.7959339618682858,2.03015089035034
11.043025970459,-0.43878385424614,-0.0124127678573132,-0.5473191738128661,0.30633988976478604,1.97792339324951
11.244321823120101,-0.0026919255033135397,0.478414982557297,-0.16951011121273,-0.0148130459710956,1.61370575428009
11.611321449279801,0.16405789554119102,0.5632106065750121,0.0884201377630234,-0.22433365881443,1.18626534938812
12.4893379211426,-0.404686123132706,0.3683451414108279,0.187835529446602,-0.150268420577049,0.6846070885658261
13.3215913772583,-0.898205816745758,0.448355138301849,0.211963996291161,-0.3721587061882021,0.2541124522686
13.7720403671265,-1.5192928314209,1.00423777103424,0.26556584239006004,-0.501352906227112,-0.22998400032520305
12.5343523025513,-1.41505551338196,1.15363967418671,0.253043472766876,-0.499062210321426,-0.5230379700660711
10.2786684036255,-1.32382917404175,1.45408844947815,0.319320410490036,-0.0922379344701767,-0.769209384918213
10.5843515396118,-2.2079770565033,2.0014464855194096,0.580152213573456,-0.33184278011321994,-1.00240039825439
10.864461898803699,-2.37726926803589,2.3991038799285898,1.1395355463028,-0.96804016828537,-1.00178945064545
10.0764751434326,-1.98035979270935,2.04780745506287,1.70960879325867,-1.0532534122467,-1.07356405258179
8.73484992980957,-1.6974085569381698,1.44930279254913,1.68410587310791,-0.9927794933319092,-1.39639687538147
8.15219688415527,-1.8302102088928205,1.3417752981185902,1.43503296375275,-0.6542174220085141,-1.6518837213516202
8.45982456207275,-2.0964117050170903,1.13569343090057,1.29346907138824,-0.543348610401154,-1.72304737567902
9.08808994293213,-2.4868905544281,0.8159525394439701,1.2180293798446695,-0.516013205051422,-1.70502746105194
9.52896785736084,-2.9597721099853502,0.38449668884277294,1.03446984291077,-0.450652569532394,-1.64974570274353
10.0512008666992,-3.41889500617981,-0.107228361070156,0.711331605911255,-0.440573573112488,-1.4128897190094
9.5330057144165,-3.4749767780303995,-0.0918245688080788,0.189057230949402,-0.273354142904282,-0.964375138282776
9.49711322784424,-3.54511618614197,0.102741822600365,-0.42759308218956,-0.0623064190149307,-0.316571593284607
9.43729209899902,-2.63973212242126,0.3765704631805421,-0.8122741580009459,0.25502872467041,0.5213581323623661
8.499904632568361,-1.15603244304657,-0.512512683868408,-0.8548807501792909,0.488219678401947,1.00850880146027
9.16256618499756,-1.00363957881927,-0.440279364585876,-0.800209879875183,0.58534437417984,1.16076254844666
10.0899353027344,-1.32667064666748,-0.536291360855103,-0.6094728708267211,0.38605546951293895,1.17114686965942
9.53360366821289,-1.46051907539368,-0.32826536893844604,-0.4564556181430821,0.63268506526947,1.29072022438049
8.903693199157711,-1.02726864814758,-0.6231807470321661,-0.463785767555237,0.8321266770362851,1.5787347555160502
8.6703929901123,-0.5878866314888,-0.665204703807831,-0.455539345741272,0.8188407421112059,1.72365820407867
9.44028377532959,-0.458075970411301,-0.847657442092896,-0.369257181882858,0.581526577472687,1.61950874328613
9.99885845184326,-0.449701100587845,-0.981057286262512,-0.404228180646896,0.0539072714745998,1.27514362335205
10.641630172729501,-0.52821558713913,-0.5253741145133971,-0.36910444498062106,-0.32481801509857205,1.13877201080322
11.746814727783198,-0.797557711601257,0.308225452899933,-0.213643833994865,-0.19684553146362305,1.0576820373535198
13.3274240493774,-0.8107182383537289,0.4725824594497679,-0.00671932008117437,-0.294581085443497,0.932611048221588
15.5463180541992,-0.933948576450348,0.192921325564384,0.474475622177124,-0.4156815707683561,0.632990479469299
13.9763278961182,-0.0302093867212534,-0.3459124267101289,0.720952451229095,-0.401173949241638,0.121711313724518
10.366904258728,-0.187986135482788,-0.00523429969325662,0.718814492225647,0.34589225053787204,-0.516165912151337
10.7573823928833,-1.47128677368164,0.228514567017555,0.594965219497681,-0.0560452342033386,-1.19955134391785
10.8237838745117,-1.81046938896179,0.4102195203304289,0.774401605129242,-0.86816668510437,-1.48115193843842
10.179067611694302,-1.80987119674683,0.33993035554885903,1.1767972707748402,-0.6450546979904169,-1.51826083660126
9.332456588745119,-1.48100769519806,-0.0797109007835388,0.833348393440247,-0.625660300254822,-1.6279079914093
9.02213764190674,-1.54606258869171,0.32213374972343395,0.317182451486588,-0.300384134054184,-1.7711516618728602
9.36087131500244,-2.12976169586182,0.339182615280151,0.150421142578125,-0.142480120062828,-1.94157803058624
9.60105133056641,-2.46146678924561,0.14536397159099598,0.128125205636024,-0.241742804646492,-1.96173596382141
9.67552757263184,-2.69521570205688,-0.0294616296887398,0.0404686294496059,-0.140953004360199,-1.78428483009338
9.91346454620361,-3.0690941810607897,-0.29656046628952,-0.20173230767250105,-0.102469630539417,-1.54926133155823
9.28385257720947,-3.26470732688904,-0.30628129839897195,-0.542279660701752,0.0105371149256825,-1.08394849300385
8.63644504547119,-3.32692074775696,-0.118893377482891,-0.896571040153503,0.20402298867702495,-0.3110739588737489
7.443024158477779,-2.12692022323608,0.546311318874359,-1.03844034671783,0.16050012409687,0.655897259712219
7.54606533050537,-1.45438754558563,0.32826536893844604,-0.720952451229095,0.343143433332443,1.29652333259583
9.519247055053713,-2.02193522453308,-0.600000262260437,-0.33123192191124,0.0772721767425537,1.40540683269501
10.6045417785645,-2.24461722373962,-1.11804640293121,-0.186461120843887,-0.417208671569824,1.55750775337219
9.51745223999023,-2.00638175010681,-0.572183728218079,-0.44790375232696505,-0.14782503247261,1.73938751220703
8.59950542449951,-1.4554343223571795,-0.0999003425240517,-0.95964103937149,0.30466008186340304,2.04297876358032
9.27727222442627,-1.05747807025909,-0.073429748415947,-1.09524917602539,0.424691557884216,2.17843413352966
10.2088279724121,-0.9110672473907472,0.397956311702728,-0.927724301815033,0.19547112286090895,2.00174641609192
11.031959533691401,-0.7592725157737729,0.7700402140617371,-0.642153203487396,-0.0716218426823616,1.7213675975799598
12.8548412322998,-0.616002261638641,0.390179634094238,-0.356887519359589,-0.0563506595790386,1.47748684883118
14.3007049560547,-0.582203686237335,0.0523429960012436,-0.209520608186722,-0.0485623553395271,1.02087843418121
15.034104347228999,-0.922582685947418,-0.221036985516548,-0.193944007158279,-0.0177145712077618,0.442558825016022
13.243675231933599,-0.6355935335159301,-0.152392894029617,-0.315197199583054,0.191347897052765,0.0123696569353342
10.7515506744385,-0.268295228481293,0.0969093143939972,-0.226777046918869,0.410642057657242,-0.339478373527527
10.0553884506226,-0.920040309429169,0.51580286026001,0.167524859309196,0.317182451486588,-0.6853706240653988
10.990682601928699,-1.4750256538391102,0.670588552951813,0.68201094865799,-0.4468347728252409,-0.9582666158676152
11.064561843872099,-1.5728322267532302,0.709172785282135,1.1630531549453702,-0.6084038615226751,-1.14549136161804
9.90075206756592,-1.59795689582825,0.38778680562973,1.18183672428131,-0.477071702480316,-1.49703395366669
9.01107120513916,-1.70997083187103,0.213708966970444,0.960251867771149,-0.25762483477592496,-1.79360032081604
8.81934642791748,-2.18823623657227,0.0137587301433086,0.8089144825935359,-0.0797155648469925,-2.0037317276001
9.060422897338867,-2.927020311355589,-0.29656046628952,0.608556568622589,-0.22189027070999104,-2.1617884635925297
9.38136005401611,-3.3109188079834,-0.285792768001556,0.236856028437614,-0.236245170235634,-1.98265743255615
9.65728282928467,-3.60882520675659,-0.139232367277145,-0.24418619275093106,-0.0671931952238083,-1.60607016086578
9.33499908447266,-3.82806754112244,0.296410918235779,-0.6804838180541989,0.0526855774223804,-1.12869298458099
9.47931671142578,-4.0793137550354,0.37193438410759,-0.7846332788467411,0.19684553146362305,-0.401632070541382
8.62777042388916,-3.39496660232544,0.5642575025558471,-0.766307890415192,0.151490122079849,0.4138490259647371
7.7035431861877415,-2.00025010108948,0.489182680845261,-0.63268506526947,0.36803546547889693,1.26750802993774
9.392576217651367,-2.0944676399231,-0.152243345975876,-0.4014793634414671,0.397356152534485,1.4884821176528895
10.619646072387699,-2.27901411056519,-0.155383914709091,-0.343754291534424,-0.143243685364723,1.37394821643829
10.07288646698,-2.00578355789185,-0.130408838391304,-0.226013481616974,-0.196540102362633,1.3547065258026103
8.51171875,-1.4380863904953,-0.0692423060536385,-0.309088706970215,0.230442121624947,1.41899824142456
8.24671363830566,-1.07243323326111,-0.06789634376764299,-0.6617003083229059,0.35230615735054,1.45274746417999
9.03604602813721,-1.2007483243942298,-0.0759721174836159,-0.7713474035263058,0.2906105816364289,1.39410614967346
10.2234840393066,-1.28120696544647,0.0333499647676945,-0.592521846294403,0.000458135444205254,1.42403769493103
11.8281707763672,-1.15184497833252,-0.0569790899753571,-0.352917015552521,-0.12369657307863198,1.45030415058136
13.589886665344201,-1.1656037569046,-0.217148661613464,-0.17088451981544506,-0.156529605388641,1.22032010555267
15.311372756958,-1.4904294013977095,-0.36939200758934,-0.0920852273702621,-0.277171939611435,0.7466080784797672
14.865859031677198,-1.5043376684188798,-0.275174617767334,-0.17699299752712194,-0.401021212339401,0.140953004360199
11.5054388046265,-0.5560321807861329,-0.0203389916568995,-0.259762793779373,0.0739125162363052,-0.26907822489738503
9.097063064575199,-0.627069056034088,0.149850517511368,-0.189515367150307,0.674375355243683,-0.627950966358185
9.553643226623539,-1.48953211307526,0.7185945510864259,0.0612374395132065,-0.0229067727923393,-1.0100359916687
10.401301383972198,-1.81435775756836,1.01111710071564,0.703390598297119,-0.911231398582458,-1.1803096532821695
10.381260871887198,-1.95852530002594,1.08828568458557,1.27117311954498,-0.8328902125358578,-1.34294772148132
9.54706287384033,-1.88778746128082,0.621984362602234,1.15450131893158,-0.577861487865448,-1.5677394866943402
9.685099601745607,-2.1023938655853303,0.788734138011932,0.785091459751129,-0.169204697012901,-1.7381658554077102
9.85304546356201,-2.79197525978088,0.8949156403541559,0.722784996032715,-0.12369657307863198,-2.0542793273925803
9.60942649841309,-3.4224841594696005,0.7277171611785892,0.8930587172508241,-0.281906008720398,-2.2754061222076403
9.40902709960938,-3.6139099597930895,0.297906428575516,0.925891757011414,-0.29274854063987704,-2.03198337554932
8.96560764312744,-3.5578281879425,-0.481406003236771,0.790436327457428,-0.165692314505577,-1.53643357753754
8.08968448638916,-3.39526581764221,-0.967298567295074,0.292901247739792,0.0561979487538338,-0.8930587172508241
7.54412126541138,-3.33679127693176,-1.01231348514557,-0.475239157676697,0.193485870957375,-0.121711313724518
6.87233638763428,-2.42467713356018,-0.350698053836823,-1.03523337841034,0.18203248083591506,0.9378032684326172
7.75409126281738,-1.99157619476318,-0.400947332382202,-1.19955134391785,0.486539840698242,1.7574075460433998
9.35907745361328,-2.7952654361724902,-0.554985284805298,-1.48649680614471,0.61970454454422,1.8934737443924
11.1852493286133,-3.31660175323486,0.642323315143585,-1.894695520401,0.374449372291565,2.12681746482849
11.3433256149292,-2.5271198749542205,1.46530473232269,-1.7966544628143302,0.271979749202728,2.2685339450836204
10.319645881652802,-1.3643575906753502,1.62936270236969,-1.3673815727233898,0.47997322678566,2.10452151298523
10.1717395782471,-0.6644569635391241,1.4563317298889198,-0.948798477649689,0.424538850784302,1.7477867603302
10.265059471130401,-0.539880633354187,0.647707164287567,-0.421637326478958,0.347266674041748,1.3011046648025502
10.037442207336401,-0.68943202495575,0.218943268060684,-0.0380252413451672,0.0711637064814568,0.8124268651008609
10.569845199585,-1.10742819309235,-0.0511465854942799,0.0574196428060532,-0.0372616834938526,0.5862606763839721
12.575329780578599,-1.6959130764007602,0.159122705459595,0.00106898276135325,-0.0491732060909271,0.47997322678566
14.7539949417114,-2.32687044143677,0.136091783642769,0.0806318372488022,-0.33886751532554604,0.253043472766876
14.629418373107901,-2.0940189361572297,0.14536397159099598,0.241437375545502,-0.648872494697571,-0.162943512201309
11.0331554412842,-0.980608642101288,0.538085997104645,0.465771049261093,-0.23303823173046104,-0.389415115118027
9.67672443389893,-1.71819615364075,0.956829965114594,0.8360971808433529,0.101858779788017,-0.7356128096580509
9.533453941345213,-2.56017065048218,1.08544421195984,1.24902987480164,-0.963153421878815,-1.16045713424683
9.42129039764404,-2.5055844783783,1.18504536151886,1.72213113307953,-1.3273711204528795,-1.00850880146027
