ax,ay,az,wx,wy,wz
10.9636144638062,-1.89586329460144,-2.54446768760681,-0.45859357714653,0.4327852725982671,1.7381658554077102
9.76092147827148,-1.2384352684021,-1.86071872711182,-0.280226171016693,0.189209938049316,1.7624469995498702
8.89980506896973,-0.799651443958282,-0.6970591545104979,0.0644443854689598,-0.20234315097332,1.80306839942932
9.5340518951416,-0.8397312164306641,-0.3984049558639529,0.28358584642410306,-0.335049718618393,1.93149900436401
10.0642118453979,-0.7476075291633609,-0.604785919189453,0.163096219301224,-0.22983127832412695,1.75297892093658
10.9301147460938,0.0608674250543118,-1.26759779453278,0.19379130005836495,-0.3633013963699339,1.48542785644531
11.051251411438,0.568594455718994,-1.0818549394607502,0.4724903404712679,-0.466840028762817,1.11006212234497
12.4245824813843,0.6239284873008729,-0.8355437517166141,0.5221216678619379,-0.501658320426941,0.617413878440857
13.0227880477905,0.85334038734436,-1.10294163227081,0.509293913841248,-0.48241662979126,0.122933007776737
14.755042076110804,0.313011109828949,-1.04192471504211,0.390636831521988,-0.281753301620483,-0.726755499839783
15.8582820892334,0.020638095214963,-0.877119064331055,0.6247440576553339,-0.107356406748295,-1.22245812416077
11.853594779968299,0.0468095913529396,0.312712013721466,1.53185224533081,-0.611152708530426,-1.44144678115845
10.1983594894409,-0.6819544434547421,1.39965164661407,2.1344530582428,-1.16839814186096,-1.68410587310791
11.2458181381226,-1.5987045764923102,1.01919293403625,1.518718957901,-0.927877008914948,-2.02465319633484
12.1232357025146,-2.03150653839111,-0.518943428993225,0.417514115571976,-0.3920112252235409,-2.38566398620605
11.552248954772901,-2.02283239364624,-1.24621188640594,-0.27259057760238603,-0.0334438867866993,-2.48630094528198
10.554142951965302,-2.5250260829925497,-0.6797111630439762,-0.5176930427551271,0.0733016729354858,-2.34290456771851
9.84571743011475,-3.119791984558109,0.0535394065082073,-0.542737782001495,0.100331664085388,-1.93837106227875
9.18185901641846,-3.62183618545532,0.400947332382202,-0.593285381793976,0.13973131775856,-1.58392691612244
8.60055255889893,-3.33828663825989,0.4030410647392271,-0.56732439994812,0.161263674497604,-1.06348502635956
7.699205875396731,-3.2222347259521498,0.4688436985015871,-0.4784461259841921,0.213643833994865,-0.5754181146621701
8.51097106933594,-3.2890841960907,0.395114839076996,-0.422095447778702,0.138967752456665,0.158667579293251
8.63823890686035,-3.80398988723755,0.219092816114426,-0.142632842063904,0.280226171016693,1.05050456523895
8.53953552246094,-3.86261391639709,0.507876634597778,0.585802495479584,0.133470132946968,1.6700564622879
7.0583782196044895,-2.67517566680908,1.2336496114730802,1.34172594547272,-0.13942588865757002,1.95868170261383
8.70030307769775,-2.36769795417786,0.7410272359848019,1.23238432407379,-0.009620844386518,1.93104088306427
11.3096761703491,-2.30698013305664,-1.05897355079651,0.704001486301422,0.336729556322098,1.7920731306076003
11.6176023483276,-1.86819624900818,-1.81839561462402,0.5150969624519349,0.531131684780121,1.67341601848602
10.504940032959,-1.17053890228271,-1.3903795480728105,0.6467345356941221,0.336271405220032,1.55170476436615
10.0410318374634,-0.7464110851287841,-1.18878424167633,0.634975731372833,0.267551094293594,1.5029896497726398
10.3492574691772,-0.497856646776199,-1.6546368598938,0.4456130862236021,0.17302247881889302,1.287513256073
11.247911453247099,0.017347963526845003,-2.343022108078,-0.0659715011715889,-0.0925433561205864,1.07753455638885
10.8101749420166,0.8712865710258481,-3.22642230987549,-0.0693311616778374,-0.212422132492065,1.02087843418121
10.5347003936768,1.31530475616455,-1.95104777812958,0.46103698015213,-0.684454381465912,0.5694623589515689
12.4526977539062,1.54023003578186,-0.8143074512481691,0.51341712474823,-0.709193646907806,-0.0723854005336761
13.907833099365199,1.30034959316254,-1.0100702047348,0.447598338127136,-0.42912021279335,-0.670710265636444
15.063117980957001,0.453888535499573,-0.6083751320838929,0.623675048351288,-0.375671058893204,-1.23742377758026
13.5456190109253,-0.0991525873541832,0.25842484831810003,1.05691850185394,-0.6285618543624879,-1.4674078226089498
10.7164058685303,-0.589083015918732,0.994516909122467,1.5258964300155602,-0.998582541942596,-1.50741827487946
10.9465656280518,-1.4904294013977095,1.26400852203369,1.3551646471023602,-1.05920910835266,-1.62210488319397
11.8672037124634,-1.96510565280914,0.438335210084915,0.516624093055725,-0.536171197891235,-1.92859745025635
11.819796562194801,-1.85892415046692,-0.262612283229828,-0.2667875289916989,0.013896775431931005,-2.11750197410583
10.3033447265625,-1.88659107685089,-0.150149613618851,-0.37002071738243103,0.169968247413635,-2.14621186256409
9.57876777648926,-2.3075783252716096,0.785593569278717,-0.224486365914345,0.17073181271552998,-1.96143054962158
9.36251640319824,-2.81156659126282,1.16276228427887,-0.115755558013916,0.304812788963318,-1.59034085273743
9.0750789642334,-3.227169990539549,1.02921283245087,-0.044897273182869006,0.30359110236167897,-1.13877201080322
7.55623483657837,-2.99416899681091,0.7136593461036679,0.145381644368172,0.220057725906372,-0.609014689922333
7.762316703796389,-3.06116795539856,0.5346463322639471,0.317640572786331,0.0826170891523361,-0.0649025216698647
8.17163848876953,-3.1479077339172403,0.238833606243134,0.258541107177734,0.0113006746396422,0.730115175247192
8.680263519287111,-3.61495685577393,-0.24167509377002694,0.221737548708916,0.311837524175644,1.4919943809509295
8.98460006713867,-3.2496027946472203,-0.411565482616425,0.5175403356552121,0.24846212565898895,1.83895564079285
8.033154487609862,-1.91276264190674,0.0239282269030809,0.8510629534721371,0.0302369389683008,1.96830260753632
9.57398223876953,-1.7575281858444198,-0.38449668884277294,0.768598556518555,0.142327412962914,1.98510086536407
11.512168884277301,-1.9236798286438,-1.17622184753418,0.6438329815864561,0.410794794559479,1.93959271907806
11.836396217346199,-1.66121709346771,-1.28016006946564,0.804027676582336,0.344059705734253,1.75435328483582
11.171790122985804,-0.9174979329109192,-1.03354978561401,0.847397863864899,0.11178504675626802,1.57537508010864
10.639087677002,-0.480359137058258,-1.54456698894501,0.716371119022369,0.00656660785898566,1.57369530200958
10.2922782897949,-0.40363925695419295,-1.8737297058105504,0.756534337997437,-0.104760304093361,1.44404292106628
10.7204437255859,-0.0227318145334721,-1.62098777294159,0.660325884819031,-0.276713818311691,1.11433815956116
10.480263710022,0.667298436164856,-1.67617225646973,0.709804534912109,-0.30740886926651,0.81746631860733
11.0681505203247,0.572034180164337,-1.22243320941925,1.06592845916748,-0.585955262184143,0.355207681655884
12.2730865478516,0.5533402562141421,-0.6133103370666501,0.890920698642731,-0.673000991344452,-0.210895016789436
12.852298736572301,0.464656233787537,-1.36645126342773,0.4501944184303279,-0.562284886837006,-0.8295305967330929
13.941631317138699,-0.108574330806732,-1.42597270011902,0.144007235765457,-0.4724903404712679,-1.33531212806702
13.8529472351074,-0.918096125125885,-0.6813562512397769,0.174396887421608,-0.36039987206459,-1.6685292720794698
11.8061866760254,-1.2163016796112098,0.363559484481812,0.61161082983017,-0.5468609929084779,-1.71922957897186
10.6552391052246,-1.80792701244354,1.2469596862793,1.13189995288849,-0.876413106918335,-1.66379523277283
11.151301383972196,-2.64661145210266,1.60543441772461,1.28445911407471,-0.9148964881896968,-1.64180469512939
11.0140132904053,-2.75369024276733,1.25997066497803,0.959030210971832,-0.672695517539978,-1.74213635921478
10.516305923461902,-2.35558438301086,0.6545865535736078,0.465312898159027,-0.289999723434448,-1.84628582000732
9.77901744842529,-2.15189528465271,0.318993180990219,0.155766054987907,-0.0529909990727901,-1.87239956855774
9.30538845062256,-2.35812664031982,0.449701100587845,0.0708582848310471,0.0274881273508072,-1.7554223537445102
9.42697334289551,-2.97697043418884,0.600000262260437,0.007024743594229221,0.198372647166252,-1.4258701801299998
8.343921661376951,-3.11156678199768,0.463758945465088,0.0207688063383102,0.222042977809906,-1.07875621318817
8.37592601776123,-3.23704028129578,0.20264217257499695,-0.000458135444205254,0.188446372747421,-0.58687150478363
8.38968467712402,-3.50040054321289,-0.169591307640076,-0.172411635518074,0.187835529446602,0.27457582950592
8.42512893676758,-3.82477736473083,-0.533300340175629,-0.493411868810654,0.465923756361008,1.08715546131134
8.667102813720701,-3.36565470695496,-0.77557361125946,-0.274881273508072,0.6607840061187739,1.5738480091095
7.8655071258544895,-1.8239290714263896,0.200099796056747,0.5178457498550421,0.289999723434448,1.5532318353653
9.34606647491455,-0.7353442907333371,0.6741777658462521,0.598783016204834,0.16859383881092094,1.49840831756592
10.8740329742432,-0.892672419548035,-0.946510910987854,0.21349111199379,0.458746284246445,1.60607016086578
11.1393375396729,-1.1183454990387,-1.67632186412811,0.523190677165985,0.361927002668381,1.66608583927155
10.760224342346199,-0.861565709114075,-0.6242275834083559,0.999956965446472,0.0933069214224815,1.55277371406555
10.5329065322876,-0.360119819641113,-0.514008224010468,1.01415920257568,-0.0224486365914345,1.3314943313598602
10.4542417526245,0.0786640420556068,-1.27821600437164,0.6493306159973139,0.109036237001419,1.1793932914733898
10.8484592437744,0.433699101209641,-2.0488543510437,0.26052635908126803,-0.0142021989449859,0.958877503871918
11.043475151062,0.694217681884766,-2.28424835205078,0.254265159368515,-0.19043163955211606,0.713622331619263
10.570592880249,1.07796657085419,-1.48399865627289,0.329704821109772,-0.352917015552521,0.42576053738594105
10.5348501205444,1.34401857852936,-1.22691977024078,0.493259161710739,-0.554954707622528,0.091932512819767
11.4510021209717,1.104736328125,-0.817896664142609,0.24601873755455,-0.588551342487335,-0.23578704893589
12.901651382446301,0.500698149204254,-1.2993026971817,-0.158667579293251,-0.455997467041016,-0.632226884365082
14.2190494537354,-0.15523436665535,-1.1522936820983898,-0.204328402876854,-0.196692824363708,-0.9897252917289732
13.322638511657699,-0.5400301814079279,-0.0891326442360878,0.42179003357887296,-0.27930989861488303,-1.04546511173248
10.2664051055908,-0.647707164287567,1.31829571723938,1.45351099967957,-0.8112051486968991,-1.06104171276093
10.2634143829346,-0.901495933532715,1.9501504898071296,1.48344254493713,-0.9208522439002992,-1.1948171854019198
11.336894989013699,-1.28524482250214,0.475423961877823,0.732100427150726,-0.257013976573944,-1.29270553588867
10.807183265686,-1.41326081752777,-0.239132717251778,0.4862344264984129,0.0867403075098991,-1.5333793163299598
10.1452684402466,-1.50762784481049,0.6852445602416989,0.5967977643013,0.0305423624813557,-1.6537162065506
9.308229446411133,-1.86969184875488,1.17188489437103,0.6103891134262079,0.09666658192873,-1.5448327064514198
8.74172878265381,-2.47283267974854,0.9643075466156008,0.5544965863227839,0.0705528557300568,-1.34386396408081
8.82129001617432,-2.82487678527832,0.737587571144104,0.35429140925407393,0.184628590941429,-1.04057824611664
8.35902690887451,-2.83280301094055,0.263060927391052,0.231052979826927,0.222653821110725,-0.685217916965485
8.631360054016112,-3.04082894325256,0.18469600379467,0.179894521832466,0.196540102362633,-0.23013670742511705
9.18963527679443,-3.26964259147644,0.017347963526845003,-0.044897273182869006,0.383153945207596,0.402701050043106
9.96102142333984,-3.47692084312439,-0.338584393262863,-0.0175618585199118,0.7861604094505309,0.779288411140442
9.82134056091309,-2.4605693817138703,-0.16390834748745,0.541210651397705,0.5628957748413089,0.996444582939148
8.00608539581299,-1.51899373531342,0.51326048374176,0.973232388496399,0.229373142123222,1.21482253074646
8.67203807830811,-1.77263295650482,-0.17946170270443,0.9523108601570128,0.14431266486644698,1.46435356140137
9.830911636352539,-1.99441766738892,-0.98599249124527,0.7933378815650941,0.245560601353645,1.6547852754592902
10.3177013397217,-1.7796618938446,-1.2756736278533898,0.8489249944686891,0.160652831196785,1.71663355827332
9.89432144165039,-1.1398808956146202,-1.00244319438934,1.03508067131042,-0.0308477859944105,1.67372143268585
9.971489906311039,-0.712163865566254,-1.00902342796326,0.93047308921814,-0.0795628577470779,1.5367389917373702
10.688738822937,-0.479461848735809,-1.58763778209686,0.616802990436554,0.00946813262999058,1.3556227684021005
10.9239835739136,-0.181405872106552,-2.02298188209534,0.481194913387299,0.0193943995982409,1.08654451370239
10.5837535858154,0.252891451120377,-1.54232370853424,0.19547112286090895,0.0109952501952648,0.84678703546524
10.985748291015598,0.20189441740512806,-1.84636175632477,0.187835529446602,-0.220363155007362,0.431410878896713
12.592228889465304,0.0272183567285538,-1.23200452327728,0.194554850459099,-0.500131189823151,-0.0461189672350883
12.845120429992699,-0.11126625537872302,-0.8753244280815121,0.23395450413227106,-0.485318154096603,-0.388346135616302
13.057034492492699,-0.5923731327056879,-0.4612165689468379,0.17012095451355,-0.530368149280548,-0.910467863082886
12.5524482727051,-0.511914491653442,-0.309571415185928,0.342074453830719,-0.4895940721035,-1.24124157428741
10.791629791259801,-0.696909606456757,0.559471845626831,0.8173136115074159,-0.614054203033447,-1.41411137580872
11.051849365234402,-1.49656105041504,1.09351992607117,1.14778196811676,-0.803874969482422,-1.663489818573
12.037243843078599,-2.36964225769043,1.0224829912185698,1.06898272037506,-0.69972550868988,-1.78275775909424
11.1883897781372,-2.6907291412353502,0.5623133182525629,0.634364902973175,-0.405144453048706,-1.85300517082214
10.0431251525879,-2.4801607131958,0.065204419195652,0.16813570261001598,-0.0908635333180428,-1.8690398931503305
9.37283611297607,-2.55388951301575,-0.0215354040265083,0.15607146918773698,-0.0171037241816521,-1.6253118515014602
8.3881893157959,-2.95498633384705,0.568295359611511,0.182490617036819,-0.0835333615541458,-1.2641483545303305
8.12991428375244,-3.0379874706268297,0.451944380998611,-0.0221432130783796,-0.0649025216698647,-0.980257153511047
8.086244583129881,-2.7309584617614706,0.0963111147284508,-0.237466871738434,-0.0111479628831148,-0.581831991672516
8.09013366699219,-2.6856443881988503,0.0457627326250076,-0.468061715364456,0.0551289655268192,-0.081089973449707
8.67099094390869,-2.82278299331665,-0.152542442083359,-0.619399130344391,0.0707055702805519,0.5722111463546751
9.12368297576904,-2.9150562286377,-0.162412837147713,-0.554649293422699,0.299467861652374,1.22199988365173
9.29103088378906,-2.6333012580871604,-0.0245264321565628,-0.0175618585199118,0.32130566239357,1.46633887290955
8.55030345916748,-1.3437194824218797,0.616301357746124,0.575876235961914,0.0471879504621029,1.5162756443023702
9.297163009643553,-1.32218408584595,0.10663016140461,0.538919985294342,0.0540599822998047,1.5868284702301
10.286893844604501,-1.8838992118835405,-1.11385893821716,0.605349659919739,0.3009949922561649,1.64608061313629
10.7256774902344,-1.7881863117218,-0.7936693429946899,1.08761358261108,0.0644443854689598,1.5489559173584
10.358379364013699,-1.30079817771912,-0.0809073150157928,1.42877173423767,-0.0120642334222794,1.40800297260284
10.610822677612301,-0.940229773521423,-0.467348158359528,1.2021473646163898,-0.014965757727623,1.24032533168793
10.6177015304565,-0.588185727596283,-1.73988115787506,1.1685508489608798,0.0120642334222794,1.10471725463867
10.5414304733276,-0.17078772187232996,-1.61904358863831,1.2395617961883505,-0.207688063383102,0.7879929542541501
10.529765129089402,0.432203590869904,-1.91066884994507,1.08944606781006,-0.3778090178966521,0.390484124422073
10.6607723236084,0.5802595019340521,-2.2603201866149902,0.8495358228683471,-0.346808522939682,0.142938256263733
11.0252294540405,0.195613250136375,-2.12692022323608,0.716676533222198,-0.738514363765717,-0.13881504535675002
11.9494571685791,-0.558425009250641,-1.3446167707443202,0.7644753456115719,-0.904512107372284,-0.3180987238883969
13.2361974716187,-1.3679467439651498,-0.394965291023254,0.60489147901535,-0.868777513504028,-0.748746037483215
13.5023994445801,-1.19401848316193,-0.0562313310801983,0.291984975337982,-0.638946235179901,-1.26872980594635
11.6654586791992,-0.7042376399040219,0.24092732369899694,0.430189192295074,-0.582290172576904,-1.52314758300781
11.4327573776245,-1.53723895549774,1.10279214382172,0.606876730918884,-0.646276414394379,-1.62179946899414
11.3102741241455,-2.25508570671082,1.29556393623352,0.7459971904754642,-0.446529358625412,-1.62974047660828
10.724781036377,-2.41585350036621,1.4282159805297898,0.794406831264496,-0.33260634541511497,-1.71846604347229
9.781110763549801,-2.2707886695861803,1.17457675933838,0.84678703546524,-0.321611076593399,-1.66394793987274
8.95379257202148,-2.45428824424744,1.05000042915344,0.6639909744262701,-0.18126893043518105,-1.47275269031525
8.66530799865723,-2.7424738407135,0.6355935335159301,0.35062631964683505,-0.019088976085186,-1.1540431976318402
8.36112022399902,-2.8971099853515603,0.365054994821548,0.136371657252312,0.0934596285223961,-0.971552550792694
9.07313442230225,-2.93763852119446,0.351445823907852,0.0484096445143223,0.25762483477592496,-0.619399130344391
8.450253486633299,-3.1070802211761497,0.311216503381729,0.30084228515625,0.208451628684998,-0.19088977575302105
9.00344371795654,-3.24945306777954,0.570837736129761,0.2255553454160689,0.232274666428566,0.409267663955688
9.81161975860596,-3.58684110641479,-0.488734036684036,0.0175618585199118,0.611916244029999,1.10028862953186
9.51595687866211,-3.23225474357605,-0.8072785139083859,0.27533939480781605,0.6882721781730649,1.13755035400391
9.59521865844727,-1.87537479400635,-0.18559330701828,0.526550352573395,0.440879017114639,0.9852966070175172
9.81161975860596,-1.47696971893311,-0.660269498825073,0.5786250829696661,0.559841513633728,1.1540431976318402
10.0292167663574,-1.8813568353653,-1.19985103607178,0.809219896793365,0.510515570640564,1.34691822528839
9.70753192901611,-1.73090803623199,-1.06660068035126,1.2258176803588898,0.231205686926842,1.43411660194397
9.19561767578125,-1.12746810913086,-0.908375322818756,1.4515258073806798,0.0253501608967781,1.39807665348053
9.486345291137699,-0.697806894779205,-1.5224334001541102,1.24383771419525,-0.14461809396743802,1.17878246307373
9.86127090454102,-0.16465610265731798,-2.4634108543396,0.5989357233047491,-0.0590994730591774,0.994917452335358
10.128070831298801,-0.0990030393004417,-3.18110823631287,0.436908513307571,-0.0853659063577652,0.8419002294540409
10.4615697860718,-0.216400891542435,-2.00548458099365,0.672848284244537,-0.412016481161118,0.7168292403221129
10.2535438537598,-0.33050861954689,-1.09187483787537,0.837471604347229,-0.553274929523468,0.498145937919617
11.1972131729126,-0.436091929674149,-0.960568726062775,0.487608820199966,-0.618482828140259,0.153017237782478
12.143424987792999,-0.658773958683014,-1.46380925178528,-0.076355904340744,-0.366508364677429,-0.20142687857151
13.631162643432601,-1.22931265830994,-1.57372951507568,-0.513111710548401,-0.14018943905830406,-0.670099437236786
13.2245321273804,-1.19282209873199,-0.867099106311798,-0.410031229257584,0.0357345640659332,-1.02866673469543
11.454591751098599,-1.05358970165253,0.42532423138618497,0.273506850004196,-0.11010521650314302,-1.18763983249664
10.275977134704599,-1.35478627681732,1.50792694091797,0.9013051390647892,-0.3796415627002721,-1.36203670501709
10.6009521484375,-1.7699409723281898,1.4633605480194098,0.870610058307648,-0.218377888202667,-1.43381118774414
10.6048402786255,-2.1106190681457497,0.51580286026001,0.851215660572052,-0.0374143943190575,-1.51199972629547
9.995866775512699,-1.97572374343872,0.478115886449814,0.936428844928741,-0.0755923464894295,-1.54406917095184
8.970991134643551,-1.86699986457825,0.53240305185318,0.884964942932129,-0.0649025216698647,-1.40983545780182
8.48823928833008,-2.02387928962708,0.203689023852348,0.6482616662979129,-0.0989572554826736,-1.21008837223053
8.66785049438477,-2.2402801513671897,-0.144018009305,0.31993123888969394,-0.0468825288116932,-0.9457442760467528
8.80154991149902,-2.35977172851562,-0.22806590795517,-0.00855186209082603,0.0128277922049165,-0.657882511615753
8.48838901519775,-2.2461128234863303,-0.186041966080666,-0.200205191969872,0.0771194696426392,-0.329246670007706
9.23674392700195,-2.5607688426971404,-0.0816550701856613,-0.279920756816864,-0.0,0.10659284889698
9.5330057144165,-2.8498518466949503,0.0354436859488487,-0.305576354265213,0.0187835525721312,0.740957736968994
10.429716110229501,-3.42293286323547,-0.161964178085327,-0.174855023622513,0.17317520081996898,1.24276876449585
8.657680511474611,-2.49347066879272,0.213708966970444,0.491121202707291,0.0113006746396422,1.40479600429535
7.89197778701782,-1.4268701076507602,0.850349366664886,0.973843216896057,-0.168899267911911,1.3660072088241595
9.73609638214111,-1.43105745315552,-0.179162591695786,0.77333265542984,0.0627645552158356,1.19237387180328
11.1714906692505,-1.53035962581635,-1.3541880846023602,0.3970507085323329,0.395523607730865,1.08043611049652
10.546963691711401,-1.31754791736603,-1.53873455524445,0.5044071078300479,0.339172929525375,0.983158648014069
9.533453941345213,-0.8813064694404599,-0.8029415607452389,0.575876235961914,0.142785549163818,0.8814526200294491
9.45927619934082,-0.728165864944458,-1.02053880691528,0.443475097417831,0.16737215220928198,0.9587247967720028
9.410223960876461,-0.7444669604301449,-1.44631171226501,0.473253905773163,0.0280989743769169,0.948951244354248
9.72637557983398,-0.465254455804825,-1.35583317279816,0.428967475891113,-0.13820418715476998,0.8452599048614499
9.490682601928713,0.0278165638446808,-1.67572355270386,0.463022232055664,-0.31229567527771,0.8470924496650699
9.91884803771973,-0.202791720628738,-1.44795680046082,0.5639647245407099,-0.530520856380463,0.7446228265762329
11.4731359481812,-0.391824722290039,-1.3721342086792,0.308783292770386,-0.6823163628578189,0.344670563936234
13.701452255249,-0.69107711315155,-1.65762794017792,-0.00167983002029359,-0.4433223903179169,-0.268467366695404
14.530863761901903,-0.5893821120262149,-1.2176476716995202,-0.10888352245092403,-0.21410197019577,-0.962084412574768
12.7317609786987,-0.26979073882103,-0.26530420780181896,0.36559209227562,-0.239757552742958,-1.17267405986786
10.398907661438,-0.797557711601257,0.897308468818665,1.00820338726044,-0.585038959980011,-1.3536375761032098
11.173733711242699,-1.4690434932708702,1.04237341880798,0.69972550868988,-0.484249174594879,-1.73755502700806
12.0982608795166,-1.75737869739532,-0.329760879278183,-0.113159455358982,0.0726908221840858,-1.98891866207123
10.982606887817399,-1.8372391462326003,-0.8696414828300479,-0.523801505565643,0.484249174594879,-2.10543775558472
10.203594207763699,-2.17058920860291,-0.167946234345436,-0.471115946769714,0.583969950675964,-2.0382444858551003
9.04142951965332,-2.42632222175598,0.5113162994384771,-0.0955975949764252,0.463327646255493,-1.78794991970062
8.93674373626709,-2.83340120315552,0.97926265001297,0.22998400032520305,0.27427041530609103,-1.4383926391601598
8.74083137512207,-2.99327158927917,0.844815969467163,0.253043472766876,0.211200445890427,-0.942690014839172
7.66122007369995,-2.71271300315857,0.3758226931095121,0.289541602134705,0.0758977755904198,-0.35138988494873
7.650452136993411,-2.72198534011841,0.232253342866898,0.261595338582993,-0.150421142578125,0.29320669174194297
7.83559703826904,-2.76042008399963,0.0022432713303715,0.11117420345544804,-0.236092463135719,0.9927794933319092
8.93180847167969,-3.1215867996215803,-0.28534409403801003,-0.0462716780602932,0.0554343871772289,1.47076749801636
8.84327411651611,-2.3932712078094505,-0.15448661148548098,0.34665581583976696,0.0432174429297447,1.5665178298950202
8.96919631958008,-1.55832576751709,0.5346463322639471,0.550067961215973,-0.0494786277413368,1.5785820484161397
10.6271238327026,-1.71610248088837,-0.4425226449966429,0.334286153316498,0.0939177647233009,1.5597984790802
11.8660078048706,-1.93923318386078,-1.2367901802063,0.37399122118949896,0.18523943424224895,1.56270003318787
11.2356481552124,-1.63205456733704,-0.7263712286949159,0.529299139976501,-0.0125223686918616,1.60927712917328
9.82777118682861,-1.18145620822906,-0.6154040694236761,0.420721054077148,-0.12858334183692902,1.56193649768829
9.77841949462891,-0.7398308515548709,-1.06151592731476,0.16645587980747198,-0.0487150698900223,1.4445010423660298
10.3815603256226,-0.43310090899467496,-1.2891331911086998,0.108578100800514,0.0213796533644199,1.2676607370376598
10.5369443893433,0.0158524494618177,-1.03504538536072,0.254417896270752,-0.0502421855926514,0.858851253986359
10.4386892318726,0.837039291858673,-0.8362914919853209,0.607945740222931,-0.36910444498062106,0.421484619379044
10.6289186477661,0.826869785785675,-0.4320540428161621,0.7687512636184691,-0.486081719398499,0.0393996499478817
12.0122690200806,0.186939269304276,-0.6674479842185971,0.526550352573395,-0.490663051605225,-0.446071207523346
13.2839040756226,-0.347258388996124,-1.04132652282715,0.356887519359589,-0.4431696832180021,-0.979799032211304
13.8436756134033,-0.962961554527283,-0.489332228899002,0.653148412704468,-0.30832514166832,-1.28430640697479
13.673485755920401,-1.72687017917633,0.722183763980865,1.1531269550323502,-0.366661071777344,-1.43610191345215
10.8749303817749,-1.41370952129364,1.26699960231781,1.48267900943756,-0.574196398258209,-1.39441156387329
9.23734188079834,-1.45812630653381,1.00274229049683,1.45228934288025,-0.689341127872467,-1.36005139350891
10.1531953811646,-2.03659129142761,0.35967114567756703,1.09815061092377,-0.5986303091049189,-1.33607566356659
10.371091842651401,-2.22338080406189,0.16316059231758098,0.7175928354263309,-0.329704821109772,-1.41014087200165
10.0739326477051,-2.04496598243713,0.365802764892578,0.3710896968841551,-0.1078145429492,-1.4805409908294698
9.51894760131836,-1.92547452449799,0.311665147542953,0.196081966161728,0.107050985097885,-1.45213663578033
8.84327411651611,-1.98499596118927,0.588185727596283,0.27595025300979603,0.197609081864357,-1.2391036748886102
8.260472297668459,-2.27662110328674,0.966700375080109,0.40132665634155296,0.181116208434105,-0.8929060101509091
8.13111019134521,-2.53594326972961,0.880110085010529,0.475850015878677,0.163401648402214,-0.454928487539291
8.490931510925291,-2.64167618751526,0.530010223388672,0.36803546547889693,0.127514362335205,0.0221432130783796
9.28190898895264,-2.84596347808838,0.0034396825358271607,0.20478653907775896,0.232121959328651,0.520594596862793
11.0277719497681,-3.40767860412598,-0.506081998348236,0.200663328170776,0.511584579944611,1.1671763658523602
9.01884746551514,-3.1719856262207,-0.405134797096252,0.86816668510437,0.32054209709167497,1.55613338947296
7.48534727096558,-2.12467694282532,0.689132928848267,1.64882946014404,-0.0523801520466805,1.54712343215942
9.559027671813961,-1.86131691932678,0.389730989933014,1.43717086315155,-0.109341658651829,1.52971422672272
11.3198461532593,-2.1284158229827903,-1.59122705459595,0.8069292306900021,0.329704821109772,1.56835031509399
11.5112714767456,-1.72926306724548,-2.22427821159363,0.7873821258544921,0.34940463304519703,1.50482225418091
10.424780845642099,-0.821336388587952,-1.26535451412201,1.06684470176697,0.0609320141375065,1.28720784187317
10.1313610076904,-0.260967224836349,-1.01425766944885,0.8382351398468021,-0.0494786277413368,1.13587045669556
9.97537803649902,0.0025423739571124307,-2.1840488910675,-0.023364907130599,0.0036650835536420298,0.93856680393219
10.457831382751499,0.3227319419384,-3.4972598552703897,-0.548388123512268,-0.0215323660522699,0.552969455718994
