ax,ay,az,wx,wy,wz
10.885398864746099,-1.58763778209686,-1.77936279773712,-0.0496313385665417,0.111479625105858,1.6030158996581998
11.481361389160199,-1.85025012493134,-1.72896385192871,-0.429272919893265,0.0134386401623487,1.60347402095795
10.4575319290161,-1.29885399341583,-1.02936244010925,-0.8188407421112059,0.357040226459503,1.76214158535004
9.41037368774414,-0.495463848114014,-0.516101956367493,-0.908177137374878,0.717134654521942,1.79909789562225
9.71127033233643,-0.0559322275221348,-0.520289361476898,-0.6358919739723211,0.5308262705802921,1.66440606117249
10.904541015625,0.0761216729879379,-1.29302155971527,-0.366508364677429,0.2887780368328089,1.15297424793243
10.8946714401245,-0.123679019510746,-1.3748261928558303,-0.702932476997375,0.168899267911911,0.7059867382049559
10.8816604614258,-0.42667019367218,-0.910319447517395,-1.1279294490814198,0.370478868484497,0.42667680978775
11.264512062072802,-0.8350951075553891,-0.24765715003013605,-0.973537802696228,0.3626905679702761,0.227540597319603
12.5901355743408,-1.27043926715851,-0.207128703594208,-0.422400891780853,-0.0251974500715733,-0.0152711812406778
12.9993085861206,-1.2070294618606598,0.0457627326250076,0.19333316385746,-0.18768282234668696,-0.30130040645599393
13.320843696594201,-1.36091792583466,-0.108574330806732,0.5241069197654721,-0.274423122406006,-0.7050704360008241
10.802397727966301,-0.7817052602767941,-0.25663024187088,0.6139014959335329,0.0157293174415827,-1.05432236194611
9.4363956451416,-1.12298154830933,0.118594273924828,0.813343107700348,-0.105065725743771,-1.33546483516693
10.321739196777301,-2.14935302734375,0.25468605756759605,1.17221593856812,-0.7038487792015079,-1.53353202342987
10.3290672302246,-2.36874485015869,0.456580460071564,1.55903494358063,-0.9249754548072808,-1.55720233917236
9.636794090271,-1.96749842166901,0.25468605756759605,1.58667576313019,-0.874275147914886,-1.4399197101593
9.11740207672119,-1.5667005777359,-0.257826626300812,1.34920883178711,-0.50349086523056,-1.4544273614883405
8.90399169921875,-1.5732809305191002,-0.514456868171692,0.8912261724472049,-0.38544461131095903,-1.55277371406555
9.05070209503174,-1.9998015165329,-0.5404788255691529,0.4660764634609221,-0.311532109975815,-1.62836611270905
8.47597599029541,-2.3093729019165,-0.404686123132706,0.0621537081897259,-0.153933510184288,-1.47259998321533
8.809774398803711,-2.4903302192688,-0.18993028998374895,-0.0813953951001167,-0.0167982988059521,-1.02790319919586
9.66326427459717,-2.7978079319000204,-0.397956311702728,-0.0974301397800446,-0.0517693050205708,-0.602753520011902
10.0420780181885,-3.00568437576294,-0.639332294464111,-0.15057384967804002,-0.169662833213806,-0.0659715011715889
9.63275623321533,-2.90533542633057,-0.784546732902527,-0.4185830950737,-0.0594048947095871,0.6548282504081729
8.63315486907959,-2.1309580802917503,0.0035892338491976296,-0.6100836992263791,0.352000743150711,1.40876650810242
8.383852005004881,-1.34356987476349,0.409770876169205,-0.269383639097214,0.729809761047363,1.77802360057831
9.96490955352783,-1.62652122974396,-0.28728827834129306,0.165081471204758,0.5482354164123541,1.749924659729
10.763364791870101,-1.84127700328827,-0.9279665350914,0.291679561138153,0.304201930761337,1.61187314987183
10.2218389511108,-1.53888404369354,-0.9798609018325808,0.0765086188912392,0.33734038472175604,1.5794982910156203
9.152097702026367,-1.05702936649323,-0.9444171786308292,-0.18859909474849695,0.71301144361496,1.69342136383057
9.34337425231934,-0.8195417523384091,-0.780359268188477,-0.238688573241234,0.8388460278511051,1.8395664691925
10.529914855957001,-0.5878866314888,-0.783649444580078,-0.0679567605257034,0.570378601551056,1.7685555219650302
11.295618057251,-0.0671485885977745,-0.719192743301392,0.0731489583849907,0.277324646711349,1.3038535118103
10.9651098251343,0.163609251379967,-1.05613207817078,0.0928487852215767,0.196998238563538,0.7108734846115109
11.8612222671509,-0.635743081569672,-1.27043926715851,-0.0873511582612991,0.0994153916835785,0.259762793779373
13.256985664367699,-1.39112722873688,-0.964157998561859,-0.243422627449036,-0.128736063838005,-0.24113196134567305
13.8795680999756,-1.90274262428284,-0.560070037841797,-0.299620568752289,-0.381932258605957,-0.639557063579559
13.6456689834595,-1.9235303401947,0.0367896482348442,-0.270910769701004,-0.349099218845367,-0.9168817400932308
10.827821731567399,-1.12477624416351,0.245264321565628,-0.066124215722084,0.108578100800514,-1.3924263715744
9.69855880737305,-1.66375946998596,0.25887349247932395,0.216850772500038,-0.0332911759614944,-1.62515914440155
11.0084800720215,-2.50648164749146,0.7308577895164491,0.6253548860549929,-0.8286142945289608,-1.69647550582886
10.7217893600464,-2.54656147956848,1.10458672046661,1.10761880874634,-1.21787667274475,-1.7769546508789098
9.39227771759033,-1.95478653907776,0.6239284873008729,1.23406422138214,-0.946965992450714,-1.60805535316467
9.03126049041748,-1.6007983684539802,0.0713360235095024,0.94849306344986,-0.348182946443558,-1.55918765068054
8.73111057281494,-1.80598294734955,-0.163310140371323,0.5577035546302801,-0.0962084457278252,-1.76580667495728
8.51515865325928,-2.32223439216614,-0.186939269304276,0.276561111211777,-0.14171656966209398,-1.76229429244995
7.77981424331665,-2.4605693817138703,-0.262911379337311,0.0717745497822762,-0.08780929446220402,-1.42755007743835
7.860721588134768,-2.66500616073608,-0.324377030134201,-0.119420640170574,-0.0380252413451672,-0.87137359380722
8.24462032318115,-2.7901806831359903,-0.252741903066635,-0.235634326934814,-0.0145076224580407,-0.222653821110725
9.47109127044678,-3.50369048118591,-0.695114970207214,-0.41033664345741294,-0.11254860460758198,0.560757756233215
9.75060272216797,-3.4648072719574,-0.207726910710335,-0.610999941825867,-0.0707055702805519,1.59492218494415
8.93165874481201,-2.1083757877349902,0.503240525722504,-0.32665055990219105,0.386360883712769,2.43071389198303
9.82926654815674,-1.1048858165741,-0.494117885828018,0.24479703605175,0.655897259712219,2.5412774085998504
11.779118537902804,-1.43479633331299,-1.62547433376312,0.3785725831985471,0.273965001106262,1.82826590538025
11.805888175964403,-1.44212424755096,-1.89257311820984,0.102775052189827,-0.081089973449707,1.2649120092392
10.154840469360401,-1.10024976730347,-1.54337060451508,-0.5691569447517401,0.373227685689926,1.1381611824035602
8.83011341094971,-0.785294473171234,-0.674028217792511,-0.964222371578217,0.8189934492111209,1.15098893642426
9.09272575378418,-0.757029235363007,-0.8289635181426999,-0.857934951782227,0.7459971904754642,1.17267405986786
9.70693397521973,-0.6985546350479129,-0.773629486560822,-0.58870404958725,0.213338404893875,0.9915578365325932
9.84152984619141,-0.418145745992661,-0.710668325424194,-0.333980739116669,0.0787992998957634,0.820673286914825
10.5309619903564,-0.3695415556430821,-0.6388836503028871,-0.18768282234668696,0.066735066473484,0.675597071647644
12.493525505065902,-0.826720237731934,-0.7565805912017819,0.068720318377018,-0.147366896271706,0.35077902674675004
13.7283716201782,-0.959222793579102,-1.22527480125427,0.28358584642410306,-0.21288026869297005,-0.10399674624204598
13.992179870605499,-1.45573341846466,-1.43210434913635,0.133164703845978,-0.265107721090317,-0.645665526390076
12.6822595596313,-1.45707941055298,-1.1431710720062298,-0.20112146437168105,-0.133317410945892,-0.9753703474998472
9.74013423919678,-0.9209375977516172,-0.576072037220001,-0.204328402876854,0.244949758052826,-1.17985153198242
10.1783199310303,-1.8167506456375104,-0.0176470670849085,0.0682621821761131,-0.346808522939682,-1.3053805828094498
11.120942115783699,-2.17178559303284,0.509970307350159,0.616039454936981,-0.926960706710815,-1.41518044471741
10.757083892822301,-1.9998015165329,0.622283458709717,0.999651551246643,-1.02316915988922,-1.60744452476501
9.5484094619751,-1.73524510860443,-0.0898803994059563,0.8283088803291321,-0.6679614782333371,-1.75068819522858
8.80962562561035,-1.78011047840118,-0.27846473455429105,0.44714018702507,-0.156987741589546,-1.77130436897278
8.81665420532227,-2.20408868789673,-0.346510618925095,0.311990231275558,-0.0392469353973866,-1.79405844211578
8.19975471496582,-2.44322156906128,-0.733699262142181,0.194554850459099,-0.10567657649517098,-1.62470102310181
8.07203769683838,-2.43813681602478,-0.7579265832901,-0.0589467622339725,-0.14782503247261,-1.2194038629531898
8.3184986114502,-2.57482671737671,-0.73040908575058,-0.303438365459442,-0.0742179453372955,-0.7275190949439999
8.61356353759766,-2.6540889739990203,-0.44955155253410295,-0.4685198366642,-0.0253501608967781,-0.15988926589489005
9.42383289337158,-3.0598218441009504,-0.631555616855621,-0.465007483959198,-0.068720318377018,0.502269148826599
9.5609712600708,-2.98893451690674,-0.5131108760833739,-0.47157409787178,-0.0146603342145681,1.33775544166565
8.49571704864502,-1.7626129388809195,-0.353240430355072,-0.2883199155330661,0.24510246515274,2.01579594612122
9.0179500579834,-1.18833553791046,-0.960867822170258,-0.0586413368582726,0.44958359003067,2.19599580764771
10.889137268066401,-1.69142651557922,-1.17278218269348,-0.15790401399135598,0.24662958085537,1.96448481082916
11.740683555603,-1.80299186706543,-0.780957520008087,-0.17348061501979806,0.042912021279335,1.8417044878006
11.160424232482901,-1.1717352867126498,-0.406032085418701,-0.0820062458515167,0.344365149736404,1.7141901254653895
10.2725372314453,-0.5098207592964171,-0.482901513576508,0.042606595903635004,0.552969455718994,1.4884821176528895
10.3855981826782,-0.254835605621338,-1.07811617851257,0.202954009175301,0.44729289412498496,1.1665655374527
10.5729856491089,-0.244965225458145,-1.5095720291137702,0.255181431770325,0.2887780368328089,0.797461092472076
10.0209913253784,0.0180957205593586,-1.65373957157135,0.13560809195041698,0.21349111199379,0.563048481941223
9.72532844543457,0.0979561805725098,-1.46111726760864,0.0423011742532253,0.176229432225227,0.348030239343643
11.157283782959,-0.705134928226471,-1.20493578910828,0.143549099564552,-0.216087222099304,0.0780357345938683
12.1166553497314,-0.981057286262512,-1.05972135066986,0.31840413808822604,-0.373227685689926,-0.208909764885902
13.2350015640259,-1.5320047140121498,-0.6438188552856451,0.258082956075668,-0.420110195875168,-0.4330907166004179
13.792379379272498,-1.60932278633118,-0.622732102870941,0.145076230168343,-0.31122666597366305,-0.708124697208405
11.5230865478516,-0.995115101337433,-0.454636305570602,0.192264169454575,0.11865708231926,-1.15816640853882
11.001600265502901,-1.76874458789825,-0.30119654536247303,0.220057725906372,-0.109952509403229,-1.55521714687347
11.5180015563965,-2.72004103660583,0.0601196698844433,0.462105959653854,-0.50532341003418,-1.81757605075836
10.658379554748501,-2.79556465148926,0.7241279482841491,0.840220391750336,-0.656202673912048,-1.90813410282135
9.42473030090332,-2.15533494949341,0.3847957849502561,0.9626953005790708,-0.499214917421341,-1.73388993740082
8.615358352661131,-1.8876379728317296,-0.0053838510066270785,0.7896727919578549,-0.0526855774223804,-1.7584764957427998
8.10538768768311,-2.09192514419556,-0.3459124267101289,0.658646047115326,0.110868774354458,-1.76168346405029
7.94776058197021,-2.54850578308105,-0.750299453735352,0.5178457498550421,0.0291679557412863,-1.58911919593811
7.50658369064331,-2.58753848075867,-0.793519794940948,0.324970752000809,-0.138356909155846,-1.08807170391083
8.01505851745605,-2.4716362953186004,-0.682253539562225,0.225402638316154,-0.143396392464638,-0.5018110275268549
8.51874732971191,-2.64182567596436,-0.95488578081131,0.0844496339559555,-0.150268420577049,-0.0186308417469263
9.81520938873291,-3.12293267250061,-1.2343974113464398,-0.123543858528137,-0.21379654109478,0.608556568622589
10.270742416381802,-3.15119791030884,-1.1038390398025502,-0.354596823453903,-0.196998238563538,1.31836104393005
9.14746189117432,-2.05962204933167,-0.7015457153320309,-0.442558825016022,0.111326910555363,2.01946115493774
9.543474197387699,-1.26699960231781,-1.3145569562911998,-0.537392854690552,0.481653064489365,2.22455310821533
11.448908805847196,-1.66854512691498,-1.47592294216156,-0.829988718032837,0.305881768465042,1.9000403881073
11.7016506195068,-1.58240354061127,-0.8913264274597171,-0.903595805168152,0.182643324136734,1.56865572929382
10.1714401245117,-1.06331050395966,-0.397208571434021,-0.838998734951019,0.4735593497753139,1.22429060935974
8.54417133331299,-0.595364212989807,-0.662213683128357,-0.7142331600189209,0.712553322315216,1.17725539207458
8.72333431243896,-0.6326025128364561,-0.9186943173408508,-0.542432367801666,0.449125438928604,1.16610741615295
9.84571743011475,-0.897158920764923,-1.10608232021332,-0.39323291182518,0.0116060981526971,1.0990669727325402
9.99048328399658,-0.5169992446899411,-0.888784050941467,-0.611458122730255,-0.0247393138706684,1.12227916717529
10.6031951904297,-0.246460735797882,-0.167946234345436,-0.750578582286835,0.35902547836303705,0.882063448429108
11.834003448486301,-0.832253634929657,-0.254237413406372,-0.41705596446991,0.384528338909149,0.491732031106949
13.0012521743774,-1.1328519582748402,-0.5799604058265689,0.0219905003905296,0.053449135273695,0.0488677807152271
13.6962175369263,-2.03434801101685,-1.01201438903809,0.197761803865433,-0.0183254182338715,-0.425607830286026
12.599108695983901,-2.15593314170837,-1.53335070610046,-0.0216850768774748,0.116977252066135,-0.545028448104858
9.99078273773193,-1.6784155368804898,-1.87073862552643,-0.349251925945282,0.54777729511261,-0.505017995834351
9.218499183654787,-1.3835000991821298,-0.984048306941986,-0.483485609292984,0.335507869720459,-0.35795649886131303
11.213514328002901,-1.65074849128723,0.116949208080769,0.053143709897995,-0.534033238887787,-0.6681141853332521
11.279766082763699,-1.99217438697815,0.92377907037735,0.984074950218201,-0.840678513050079,-1.3556227684021005
9.8030948638916,-2.2088744640350297,0.3762713670730589,1.30996191501617,-0.836402595043182,-1.77222061157227
8.81127071380615,-2.27482652664185,-0.439082950353622,0.9048175215721128,-0.378267168998718,-1.87377393245697
8.5781192779541,-2.58993148803711,-0.521336257457733,0.377350896596909,0.0513111688196659,-1.82872402667999
8.48734188079834,-3.05174612998962,-0.4875376224517821,0.160041987895966,0.16645587980747198,-1.66578042507172
8.291579246521,-3.01405930519104,-0.575025200843811,0.0977355614304543,0.061695571988821,-1.27499091625214
8.887392044067381,-3.12009119987488,-0.742672324180603,0.0337493121623993,-0.0708582848310471,-0.996902704238892
9.44506931304932,-3.43983221054077,-1.08828568458557,-0.13560809195041698,-0.134844526648521,-0.753021955490112
9.38390254974365,-3.62662172317505,-1.14661073684692,-0.4848600029945371,-0.0682621821761131,-0.29656633734703103
10.3283195495605,-3.88325214385986,-0.819392204284668,-0.759741306304932,-0.165386900305748,0.402701050043106
9.190084457397461,-2.8728826045990004,0.0423230491578579,-0.6907155513763431,-0.0148130459710956,1.1262496709823602
8.446364402771,-1.61889410018921,0.44401815533638,-0.316418886184692,0.277171939611435,1.48832929134369
9.9991569519043,-1.6990536451339702,-0.36116665601730297,0.0716218426823616,0.264496862888336,1.34890341758728
10.6289186477661,-1.86385929584503,-1.13449704647064,0.208451628684998,0.0711637064814568,1.19374823570251
9.57353401184082,-1.3968101739883405,-1.44406843185425,0.0183254182338715,0.194096714258194,1.2145171165466295
8.52517795562744,-0.8691928386688229,-1.51346027851105,-0.361774295568466,0.44958359003067,1.34080970287323
8.718249320983888,-0.7172485589981079,-1.28180515766144,-0.56579726934433,0.41690325736999495,1.41609668731689
9.74671459197998,-0.9481559991836552,-1.03011012077332,-0.518762052059174,0.0137440636754036,1.34997248649597
10.174580574035598,-0.697806894779205,-0.901196837425232,-0.354596823453903,-0.0740652307868004,1.33485400676727
10.579416275024402,-0.211017042398453,-0.834646463394165,-0.247240424156189,0.0389415137469769,1.2407834529876698
12.0474138259888,-0.269342094659805,-0.998704373836517,-0.042606595903635004,-0.0936123430728912,0.8871029615402221
13.593625068664599,-0.4911268353462221,-1.36136651039124,0.220363155007362,-0.22647161781787895,0.32374903559684803
14.393425941467301,-0.956680417060852,-1.66061890125275,0.15927842259407002,-0.26892551779747004,-0.326497852802277
13.5948219299316,-1.39591288566589,-1.40787696838379,-0.228915005922318,-0.0375671051442623,-0.805554807186127
10.482656478881802,-0.9276674389839168,-0.680608510971069,-0.392927497625351,0.38483378291130105,-1.11128389835358
9.51805019378662,-1.42896378040314,0.0032901312224566893,-0.05757235363125799,0.208757057785988,-1.27438008785248
10.5303640365601,-2.01475667953491,0.28549364209175104,0.708888232707977,-0.5528167486190799,-1.36203670501709
11.2707929611206,-2.16580367088318,0.167946234345436,1.40006196498871,-0.871526300907135,-1.56499063968658
10.5640125274658,-2.0353946685791,-0.44715872406959495,1.29988300800323,-0.8477032780647281,-1.82872402667999
9.37298583984375,-1.93669080734253,-1.04641127586365,0.5795413255691529,-0.33688226342201194,-1.97120416164398
8.9992561340332,-2.27916359901428,-0.585942447185516,-0.061695571988821,0.0623064190149307,-1.9690661430358896
8.731260299682619,-2.69327139854431,-0.133549407124519,-0.142174705862999,0.152253672480583,-1.8672074079513503
7.77951526641846,-2.68878483772278,-0.0031405796762555803,0.0325276181101799,0.0685676038265228,-1.54926133155823
7.66989374160767,-2.66126751899719,-0.31570303440094,0.18982078135013605,-0.029931515455246006,-0.997208178043365
8.268398284912111,-2.70388960838318,-0.8232805132865909,0.0981936976313591,-0.0503949001431465,-0.377198189496994
9.010622024536133,-2.78539514541626,-1.29646122455597,-0.153933510184288,-0.0393996499478817,0.224486365914345
9.69272613525391,-2.97726964950562,-1.5596717596054095,-0.538461863994598,-0.123543858528137,0.95994645357132
9.398858070373539,-2.25822639465332,-0.919442117214203,-0.731642305850983,-0.00015271181473508502,1.6688346862793002
8.56032276153564,-0.76570326089859,-0.951595664024353,-0.605502367019653,0.13912045955657998,1.91500616073608
10.1889381408691,-0.7525427341461178,-1.9179968833923304,-0.529604554176331,-0.0791047215461731,1.5057384967804
11.342428207397498,-1.16799652576447,-1.89451730251312,-0.667503356933594,-0.392774790525436,1.26231586933136
11.95618724823,-1.30483615398407,-1.33280217647552,-0.772110939025879,-0.0978882759809494,1.27697622776031
9.79277610778809,-0.49351966381073,-1.33055889606476,-0.902068674564362,0.552969455718994,1.3044643402099598
9.15867805480957,-0.15329019725322698,-1.35314118862152,-0.99736088514328,0.6972821354866031,1.3682978153228798
9.40857887268066,-0.181405872106552,-0.9973583817481992,-0.611458122730255,0.156529605388641,1.10777151584625
10.0990571975708,-0.3617648780345921,-0.96370929479599,-0.149199441075325,-0.0714691281318665,0.943911731243134
9.99302577972412,0.0329013131558895,-1.13838541507721,-0.0670404881238937,0.0100789796561003,0.935665309429169
10.640284538269,0.308823674917221,-1.2960125207901,-0.182948753237724,0.141258433461189,0.833195686340332
12.2998561859131,0.0152542442083359,-1.32009029388428,-0.0131332157179713,-0.00885728560388088,0.432174444198608
14.1388902664185,-0.6140581369400021,-1.4919248819351203,0.348641067743301,-0.207840785384178,-0.0945286154747009
14.6277732849121,-1.0073783397674598,-2.07113766670227,0.494175434112549,-0.102011494338512,-0.601379156112671
12.404691696167,-1.07946217060089,-1.53813636302948,0.467145442962646,0.18523943424224895,-0.929709553718567
9.33963584899902,-0.729810893535614,-0.727268517017365,0.7223268747329709,0.23578704893589,-1.03798222541809
9.601948738098141,-1.53813636302948,-0.0722333341836929,1.29973030090332,-0.48241662979126,-1.16244232654572
9.98465061187744,-1.66121709346771,-0.430109858512878,1.99533259868622,-1.01522815227509,-1.21207368373871
9.49606609344482,-1.29990088939667,-0.941426157951355,2.03717565536499,-1.01125764846802,-1.32309520244598
8.83639526367188,-1.10907328128815,-1.45349025726318,1.15205788612366,-0.9552124142646792,-1.40403246879578
9.099306106567381,-1.2520444393158,-1.20658087730408,0.0494786277413368,-0.532353401184082,-1.53948783874512
9.62841892242432,-2.0569300651550297,-0.43968117237091103,-0.6369609832763671,-0.24662958085537,-1.62042510509491
9.7301139831543,-2.48808693885803,-0.00672981375828385,-0.8405258059501651,-0.0786465853452682,-1.49000918865204
8.98893737792969,-2.3485553264617898,0.267846584320068,-0.87473326921463,0.22143213450908705,-1.20291101932526
8.96560764312744,-2.37009072303772,0.3173480927944181,-0.720647037029266,0.399799525737762,-0.8893936276435849
8.731858253479,-2.50244379043579,0.17168502509594,-0.389109700918198,0.455233931541443,-0.4850127100944521
9.47109127044678,-3.10842609405518,-0.4230809509754179,-0.15912571549415602,0.2367033064365389,0.1270562261343
8.53953552246094,-2.49915361404419,-0.188584327697754,-0.0519220158457756,0.20616094768047305,1.05844557285309
7.96495866775513,-1.4328521490097,-0.266500622034073,0.20402298867702495,0.470810532569885,1.6705145835876498
9.14880752563477,-1.3360923528671298,-1.21017003059387,0.440420866012573,0.391247659921646,1.83803939819336
11.0697956085205,-1.53604257106781,-1.89362001419067,0.437213927507401,0.0494786277413368,1.75862920284271
11.606386184692399,-1.45094788074493,-1.6426727771759,0.0925433561205864,-0.0957503095269203,1.5691138505935702
10.4428758621216,-0.939781069755554,-1.2655041217803995,-0.34054735302925104,0.422706305980682,1.4956594705581698
9.69377326965332,-0.258723944425583,-1.5806089639663703,-0.6919372081756588,1.10990941524506,1.47244727611542
10.2695465087891,-0.130408838391304,-0.323778808116913,-0.684301614761353,0.436755776405334,1.15755558013916
10.2462158203125,0.166749835014343,-0.5765206813812261,0.0592521838843822,-0.0169510114938021,0.848314106464386
10.398159980773901,0.20727826654911,-0.5184947848320011,0.593285381793976,-0.0766613334417343,0.6821636557579039
10.792527198791499,0.0655035227537155,-0.799651443958282,0.662463843822479,-0.189057230949402,0.427440375089645
12.2660579681396,-0.377168655395508,-0.7823034524917599,0.632074177265167,-0.33367532491684,0.242048233747482
14.173735618591301,-0.8772686123847958,-0.657727122306824,0.6241331696510309,-0.50853031873703,-0.231511116027832
14.373984336853,-1.2282657623291,-0.468095928430557,0.4665345847606661,-0.490052223205566,-0.695602297782898
11.3843021392822,-0.77811598777771,0.035294134169817006,0.28725093603134194,0.0146603342145681,-1.01034140586853
8.98848915100098,-1.0185947418212902,0.482452869415283,0.450805276632309,0.1072036921978,-1.15282154083252
9.396913528442381,-2.1080768108367898,0.958175897598267,0.993543088436127,-0.643680274486542,-1.11418545246124
9.671041488647461,-2.09506583213806,1.15917301177979,1.7624469995498702,-1.17282676696777,-0.871984481811523
9.822835922241213,-1.7156537771225,0.8440681695938109,2.11597490310669,-1.3805148601532,-0.82891970872879
9.5247802734375,-1.33728873729706,0.17796617746353102,1.83712315559387,-1.27102041244507,-0.95307445526123
9.38764190673828,-1.29810631275177,0.209222435951233,1.28277921676636,-0.9692618846893308,-1.1366339921951298
9.3819580078125,-1.5225830078125,0.502492725849152,0.862363636493683,-0.767835021018982,-1.2945380210876498
9.48664474487305,-1.7985053062438998,0.507876634597778,0.585649788379669,-0.578930497169495,-1.3766970634460405
10.187143325805698,-2.19481658935547,0.29715865850448603,0.284960240125656,-0.397661566734314,-1.3168339729309098
10.6755781173706,-2.1391835212707497,-0.349202543497086,-0.0244338903576136,0.0809372588992119,-1.2129899263382
10.2710418701172,-2.44710969924927,-0.6987041831016539,-0.42850935459137,0.6977402567863461,-1.08761358261108
9.34427165985107,-2.86749887466431,-0.38120657205581693,-0.601989984512329,0.948034942150116,-0.663227438926697
7.68709230422974,-2.4515962600708,0.0264705996960402,-0.281142443418503,1.03996741771698,0.240826532244682
7.03953456878662,-1.72956216335297,-0.29431718587875394,0.242659077048302,0.977355599403381,1.2152806520461998
7.50882720947266,-1.1673983335495,-0.404835671186447,0.6930062174797061,0.6473453640937811,1.6440954208374
9.17677402496338,-1.58210444450378,-0.9457631707191472,0.964222371578217,0.0981936976313591,1.5555225610733
10.4259767532349,-1.80897390842438,-1.3538889884948702,0.945896983146667,-0.143090963363647,1.6427209377288798
10.927721977233901,-1.61709940433502,-0.858425140380859,0.70461231470108,-0.0751342102885246,1.7787872552871695
10.741230964660597,-1.16021990776062,-0.441176682710648,0.675597071647644,0.200205191969872,1.73740231990814
10.6920289993286,-0.7654041647911071,-0.72786670923233,0.8912261724472049,0.27152159810066195,1.54498541355133
10.9009523391724,-0.5295615792274481,-1.22452700138092,1.02484893798828,0.14675605297088598,1.11953032016754
10.5574321746826,-0.547657310962677,-1.64401865005493,0.896723747253418,0.0760504826903343,0.715302169322968
10.1771230697632,-0.535693168640137,-1.6864912509918202,0.608556568622589,0.0867403075098991,0.529146432876587
9.99018383026123,-0.7342974543571469,-1.5520446300506598,0.463480353355408,0.121558606624603,0.269689053297043
10.264909744262699,-0.923479974269867,-1.28659081459045,0.6617003083229059,-0.119267925620079,0.24510246515274
12.298659324646001,-1.47532474994659,-0.957278609275818,1.01492273807526,-0.723854005336761,0.0419957488775253
14.8011035919189,-2.41719961166382,-0.761964440345764,1.19283199310303,-1.3847907781601,-0.406671553850174
13.498211860656701,-1.60887408256531,-0.6647560596466059,1.1154071092605602,-1.23513317108154,-0.714691281318665
10.2906332015991,-0.814157903194427,0.0312562473118305,0.895807504653931,-0.5897729992866519,-1.1169341802597
9.30075168609619,-1.56086814403534,0.209371984004974,0.743553817272186,-0.7369872331619259,-1.53322660923004
9.55409240722656,-2.3605196475982697,0.5941677689552309,0.918256163597107,-1.10807693004608,-1.570641040802
9.26979446411133,-2.36366009712219,0.601944446563721,1.1050226688385,-1.34264230728149,-1.36264753341675
9.031110763549801,-1.98649144172668,0.30433714389801,0.911078691482544,-1.22032010555267,-1.07310593128204
8.97921657562256,-1.73823606967926,0.37193438410759,0.483791023492813,-0.8153283596038822,-0.910162389278412
9.14073181152344,-1.74302172660828,0.819840848445892,0.27381229400634804,-0.49051034450531,-0.827850759029388
9.65698337554932,-1.94955229759216,0.905533790588379,0.352611571550369,-0.326039731502533,-0.8316685557365421
9.59671401977539,-2.08639168739319,0.701396107673645,0.440420866012573,-0.135913521051407,-0.8745805621147159
10.268649101257301,-2.65319156646729,0.196959212422371,0.540599822998047,0.0812426880002022,-0.874885976314545
10.995469093322802,-3.1917262077331503,-0.592223584651947,0.5216635465621949,0.26541313529014604,-0.7133168578147892
10.2185487747192,-3.3315567970275897,-1.37647128105164,0.21257483959198,0.6039752364158629,-0.42514967918396
9.06401252746582,-2.8503003120422403,-1.77741861343384,-0.103080473840237,0.9353598356246948,0.344365149736404
8.52263641357422,-1.65388906002045,-2.25897407531738,-0.23074755072593695,1.22337436676025,1.05279529094696
7.702197074890139,-0.969093143939972,-2.4599711894989,-0.259457379579544,1.4545800685882602,0.954754292964935
8.45369243621826,-1.78355014324188,-2.11002087593079,-0.399646818637848,0.6907155513763431,0.571294903755188
9.60523891448975,-2.3309082984924303,-1.45139646530151,-0.34237989783287,0.0171037241816521,0.7223268747329709
9.67313480377197,-2.0388343334198,-0.742672324180603,-0.178520113229752,0.107356406748295,1.16473305225372
9.26680374145508,-1.61919319629669,-0.358773857355118,-0.0826170891523361,0.308783292770386,1.52177321910858
9.93888759613037,-1.3906786441802998,-0.535094976425171,0.135302662849426,0.17943638563156106,1.80001413822174
