ax,ay,az,wx,wy,wz
10.5951194763184,0.118295170366764,-2.1023938655853303,-0.0838387832045555,0.154086217284203,0.934749007225037
10.4038429260254,0.138634160161018,-1.9150059223175,-0.244338899850845,0.16095824539661402,0.567477107048035
11.520244598388699,-0.4147060811519621,-1.8912272453308097,-0.456761032342911,0.105523861944675,0.194860279560089
12.5442228317261,-1.09950196743011,-1.59541451931,-0.43751934170723,0.00335966004058719,-0.195012986660004
13.3090286254883,-1.86251330375671,-1.37811625003815,-0.27472856640815696,-0.232885524630547,-0.570225894451141
12.359377861022901,-1.8919749259948704,-1.16171538829803,-0.134233683347702,-0.0412321910262108,-0.735307395458221
10.044172286987301,-1.34132659435272,-0.974177896976471,-0.0792574286460876,0.186002984642982,-0.8768712282180791
9.682257652282713,-2.0880367755889897,-1.09710919857025,-0.00717745535075665,0.100178949534893,-1.03538608551025
10.1878910064697,-2.31385946273804,-0.8473583459854129,0.195776551961899,-0.323596328496933,-1.11830866336823
10.7464656829834,-2.67936325073242,-0.512811779975891,0.388651579618454,-0.46286952495575,-1.43090975284576
9.99078273773193,-2.64137721061707,-0.3885345757007601,0.33688226342201194,-0.424080699682236,-1.6024050712585405
8.9817590713501,-2.3693430423736603,-0.276819676160812,0.238841280341148,0.023517619818449,-1.59034085273743
8.20364284515381,-2.72437810897827,-0.460767924785614,0.198219940066338,0.2883199155330661,-1.59522759914398
8.31371307373047,-2.701945304870609,-0.785593569278717,0.3451287150383,0.236550599336624,-1.33806097507477
8.44068145751953,-2.97771811485291,-1.29690992832184,0.4575245976448061,0.193180441856384,-1.17099416255951
8.26735210418701,-3.07208514213562,-1.8418751955032304,0.26266431808471696,0.0580304898321629,-0.7927270531654359
9.03335380554199,-3.04845595359802,-1.88210451602936,-0.169662833213806,-0.138662323355675,-0.24128466844558705
10.1246309280396,-3.46794772148132,-1.6232310533523602,-0.602448105812073,-0.313822776079178,0.228304162621498
9.58594703674316,-2.98011112213135,-0.857677340507507,-0.8643488883972171,-0.141869276762009,0.9975135922431948
8.7137622833252,-1.93803679943085,-0.4425226449966429,-0.846481561660767,0.218377888202667,1.611567735672
9.21625518798828,-1.3799109458923302,-0.910319447517395,-0.709346354007721,0.450347155332565,1.8021521568298304
10.8610219955444,-1.5230315923690805,-1.06959176063538,-0.586107969284058,0.0528382882475853,1.51261055469513
11.7658081054688,-1.50493586063385,-0.8896813988685609,-0.39903596043586703,-0.18630841374397306,1.15831911563873
10.328169822692901,-1.15064859390259,-0.7357929348945621,-0.390636831521988,0.20692451298236805,0.8658760190010071
8.32866764068604,-0.722782015800476,-0.9396315217018132,-0.649025201797485,0.640626072883606,0.9652913808822629
8.29471969604492,-0.6326025128364561,-0.96625167131424,-0.695296883583069,0.645207405090332,1.09708166122437
9.15658473968506,-0.6204888224601751,-1.32218408584595,-0.32726141810417203,0.41247460246086093,1.12869298458099
9.98315525054932,-0.378365069627762,-1.61545443534851,-0.0213796533644199,0.166761308908463,1.00072050094604
11.030014991760302,-0.490827739238739,-1.66375946998596,0.0632226914167404,0.0142021989449859,0.7180509567260741
12.156735420227099,-0.904038310050964,-2.00204467773438,0.00610847258940339,0.053754560649395,0.4031592011451721
13.590784072876,-1.80717933177948,-2.07024025917053,-0.186155706644058,-0.14202198386192302,0.00610847258940339
13.166805267334,-1.83454716205597,-1.5837495326995803,-0.355054974555969,-0.11514470726251598,-0.34085276722908003
11.267053604126,-1.5390336513519298,-1.0473085641861,-0.462564080953598,0.0884201377630234,-0.7508839964866642
9.32109069824219,-1.80418825149536,-0.9288638234138492,-0.391705811023712,0.34299072623252896,-1.01415920257568
9.25439071655273,-2.34272289276123,-1.05433750152588,-0.17317520081996898,-0.110257931053638,-1.10319018363953
10.2408323287964,-2.28768801689148,-0.580708146095276,0.293359398841858,-0.6113054156303411,-1.1503781080246
10.7588787078857,-2.37038993835449,-0.771386206150055,0.5671716928482061,-0.740652322769165,-1.4799301624298102
9.67971515655518,-2.25149655342102,-1.01799643039703,0.330773800611496,-0.478598833084106,-1.65310537815094
8.45144939422607,-2.29770803451538,-1.10054886341095,-0.15729317069053605,-0.14904673397541,-1.60652828216553
7.92128992080688,-2.62014079093933,-1.05927264690399,-0.428203940391541,-0.00106898276135325,-1.36157858371735
7.66989374160767,-2.5259234905242898,-0.8309076428413391,-0.372005969285965,-0.0571142174303532,-0.907719016075134
8.32747173309326,-2.5664517879486097,-0.927069246768951,-0.20356485247612,-0.188751801848412,-0.5754181146621701
8.948259353637699,-2.5658535957336404,-1.26939237117767,-0.269689053297043,-0.16905197501182598,-0.24296449124813105
10.002896308898901,-2.94870519638062,-1.30573344230652,-0.604433357715607,-0.129346907138824,0.0801737010478973
10.5160064697266,-3.12427854537964,-1.1974581480026203,-0.98285323381424,-0.0856713280081749,0.5528167486190799
9.94546794891357,-2.72303223609924,-0.414556533098221,-1.18565452098846,0.18753011524677304,1.1370921134948702
8.23430061340332,-1.47293186187744,-0.128464668989182,-1.15786099433899,0.5841227173805239,1.54132032394409
9.516255378723141,-1.28150606155396,-0.612562596797943,-0.965596795082092,0.642153203487396,1.54620707035065
11.1931753158569,-1.18504536151886,-0.9910772442817692,-0.787076711654663,0.452332407236099,1.1303728818893402
11.0838537216187,-1.09815609455109,-1.12417793273926,-0.845565319061279,0.38758260011673,0.568393349647522
9.41770172119141,-0.672383189201355,-1.72672069072723,-1.15892994403839,0.6972821354866031,0.5344913601875311
8.60892677307129,-0.0038883367087692,-3.26739931106567,-1.85422682762146,1.4336584806442298,0.7925743460655209
8.68609619140625,-0.13549357652664198,-1.7283656597137498,-2.60923409461975,0.9497147798538208,0.9454388618469242
10.757831573486301,-0.164805665612221,0.0874875783920288,-2.66833353042603,-0.44958359003067,0.5308262705802921
9.94113159179688,0.240179568529129,-0.8261220455169681,-1.96234679222107,-0.906344592571259,0.0262664314359426
10.232457160949698,0.637836813926697,-0.555882632732391,-1.06379055976868,0.145228937268257,0.3277195692062381
12.4017009735107,-0.262014091014862,-0.632752060890198,-0.36101073026657104,0.440115451812744,0.11743538826704
14.121691703796401,-0.4686941206455229,-0.399302273988724,-0.0786465853452682,-0.0641389638185501,-0.394454628229141
14.4376935958862,-0.164357006549835,-0.8201399445533749,0.0444391369819641,0.33062109351158103,-0.8652651309967041
10.7467651367188,0.5147559642791749,-0.262014091014862,0.0148130459710956,1.4437375068664595,-1.29148375988007
7.724928855896,0.6610172390937811,0.621535658836365,0.120947755873203,0.915507316589355,-1.13449609279633
9.95832920074463,-0.732502818107605,0.149700969457626,0.119420640170574,-0.0178672820329666,-0.52639764547348
11.0859470367432,-1.10353994369507,0.664905607700348,0.4222481548786161,-0.0684148967266083,-0.5157077908515929
9.899556159973141,-0.722034215927124,0.648754060268402,0.8177717924118041,0.0844496339559555,-0.85029935836792
7.91575622558594,-0.460767924785614,0.189032986760139,0.947882235050201,0.17607672512531305,-1.10914587974548
7.96794986724854,-0.545563578605652,0.38045880198478704,0.821284115314484,-0.0815481096506119,-1.1471711397171
9.68001461029053,-1.1243275403976398,0.380309253931046,0.753632783889771,-0.217308908700943,-1.33607566356659
8.93838882446289,-1.27881419658661,0.15658032894134502,0.666587054729462,0.0316113457083702,-1.25300049781799
8.71615600585938,-1.12223386764526,0.244666114449501,0.445154935121536,-0.0198525357991457,-0.66872501373291
9.89357376098633,-1.36675035953522,0.00672981375828385,0.284960240125656,-0.163707062602043,-0.26587125658989
10.0706424713135,-1.25488591194153,-0.232851549983025,0.0737598091363907,-0.0900999680161476,0.17714570462703694
10.904990196228,-1.4244772195816002,-0.498454868793488,-0.32298550009727506,-0.328024983406067,0.597714066505432
10.688289642334,-1.08933246135712,-0.326171636581421,-0.7716528177261349,-0.29320669174194297,1.02454352378845
8.68385219573975,0.19441683590412095,0.0821037292480469,-1.02545988559723,0.262817025184631,1.18214213848114
9.07358360290527,0.415005177259445,0.0913759171962738,-1.14640760421753,0.278393626213074,1.03492796421051
10.558329582214402,-0.0777667388319969,0.503390073776245,-1.02255833148956,-0.19241689145565,0.741568565368652
10.919197082519501,-0.22612173855304696,0.3801597058773039,-0.654370129108429,-0.0931542068719864,0.584428131580353
8.82024383544922,0.364905446767807,0.34187453985214195,-0.4396573007106779,0.403006464242935,0.6705575585365301
7.91635465621948,0.789182841777802,-0.198903381824493,-0.44866731762886,0.488983243703842,0.98254781961441
9.121439933776859,0.933948576450348,-0.5872883796691889,-0.486081719398499,0.4738647639751429,1.0477557182312
9.90478992462158,0.879063189029694,0.447906494140625,-0.423927992582321,0.4599680006504061,0.8938222527503971
10.628469467163098,0.839132964611053,0.967298567295074,-0.0468825288116932,0.37521293759346,0.583664536476135
11.305190086364698,0.552293360233307,0.0154037959873676,0.113464877009392,0.6129852533340451,0.192569598555565
12.320942878723097,0.0776171833276749,0.127118706703186,-0.15546062588691698,0.245866015553474,-0.0137440636754036
13.813316345214801,-0.338883519172668,0.644267499446869,-0.392774790525436,-0.326497852802277,-0.295039236545563
13.153196334838901,-0.0957129076123238,1.12477624416351,-0.529451847076416,-0.137898772954941,-0.5816792845726011
9.48529815673828,0.530907511711121,1.28464663028717,-0.529146432876587,0.369562596082687,-0.662769258022308
8.6989574432373,0.219092816114426,1.5924234390258798,-0.198067218065262,0.173938751220703,-0.622300624847412
9.73445129394531,-0.106331057846546,2.27482652664185,0.6073349118232729,-0.558314383029938,-0.6957550048828121
10.3040924072266,-0.151495590806007,2.40239381790161,1.4437375068664595,-0.686745047569275,-0.950783729553223
9.39496898651123,0.0560817793011665,1.92981147766113,1.58973002433777,-0.328635811805725,-1.15297424793243
8.52801990509033,0.108275227248669,1.38454699516296,1.16916167736053,0.0297788046300411,-1.1366339921951298
8.55568695068359,-0.0631106942892075,1.50822603702545,0.952921748161316,0.08780929446220402,-1.08608639240265
9.34890747070312,-0.35039895772934004,1.4144573211669902,1.01950407028198,-0.182337909936905,-1.04622864723206
9.6022481918335,-0.556181728839874,0.903440117835999,0.9652913808822629,-0.279157191514969,-1.07951986789703
9.7938232421875,-0.6928716897964481,0.390628308057785,0.5343386530876161,-0.333064466714859,-0.9585720896720892
10.1765251159668,-0.8196913003921509,0.0792622491717339,0.000610847258940339,-0.293664813041687,-0.6647545099258421
11.375329017639196,-1.15349006652832,-0.216101795434952,-0.575876235961914,-0.3662029206752779,-0.197303667664528
10.675877571106,-0.9110672473907472,-0.353090882301331,-1.194664478302,0.21303297579288505,0.382237672805786
8.34481906890869,-0.0894317477941513,0.0858425125479698,-1.5677394866943402,0.90756630897522,0.9991934299468992
8.44741153717041,0.546460866928101,0.8925228714942929,-1.49413239955902,0.797155678272247,1.18382203578949
9.86306571960449,0.25453650951385504,1.65837562084198,-0.910162389278412,0.20325942337513,0.888477325439453
10.356734275817901,0.0216849558055401,1.35628175735474,-0.27640837430954,-0.4327852725982671,0.48150035738945
8.542675971984862,0.240030020475388,0.7622635364532471,-0.234412640333176,-0.494022727012634,0.513264417648315
7.8774714469909695,0.36939200758934,0.700947463512421,-0.556176424026489,-0.204633831977844,0.872595310211182
8.54716205596924,0.4248755574226379,1.03055882453918,-0.563659310340881,0.0415376126766205,1.16610741615295
9.54093170166016,0.572183728218079,1.45857501029968,-0.231969252228737,-0.0948340371251106,1.36264753341675
10.502995491027802,0.901196837425232,1.3236795663833605,0.27625566720962497,-0.162332653999329,1.3175975084304798
11.0729360580444,1.09337043762207,0.90613204240799,0.563659310340881,-0.0755923464894295,1.0941801071167
12.2635154724121,1.02233350276947,0.715753078460693,0.5554128885269171,-0.199899762868881,0.816550076007843
13.6561374664307,0.748504817485809,0.7600203156471249,0.421026468276978,-0.32222193479538,0.416597843170166
13.648810386657699,0.611216604709625,0.646361231803894,0.166914016008377,-0.165386900305748,-0.0716218426823616
11.7747812271118,0.54541403055191,1.0371390581131,0.0339020229876041,0.0902526825666428,-0.36314868927002
8.87393188476562,0.8795118927955631,1.26385903358459,0.353985995054245,0.326497852802277,-0.540752530097961
8.88320446014404,0.33275189995765697,1.34252309799194,0.940399348735809,-0.3277195692062381,-0.6227588057518011
10.4822082519531,-0.127417802810669,1.38544428348541,1.52864527702332,-0.9907942414283748,-0.71942538022995
10.584800720214801,0.071186475455761,1.30214416980743,1.70518016815186,-1.06577575206757,-0.937345147132874
9.48006439208984,0.187387928366661,0.867846846580505,1.35959327220917,-0.784022450447083,-1.21833491325378
8.80618572235107,0.00119641132187098,1.1678470373153702,1.04821383953094,-0.33199548721313504,-1.30125737190247
8.912516593933109,-0.362213522195816,1.4845968484878502,1.04806113243103,-0.219752296805382,-1.3134742975235
9.69182872772217,-0.5920740365982061,1.33489596843719,1.14549136161804,-0.35322242975235,-1.2939271926879898
10.115957260131802,-0.7507480978965759,0.956979513168335,1.10456454753876,-0.32817769050598106,-1.20733964443207
10.73375415802,-0.886839866638184,0.4648058116436,0.779288411140442,-0.36452311277389504,-1.08410120010376
10.889286994934098,-1.06136643886566,0.351595371961594,0.24785128235817,-0.202190443873405,-0.844038188457489
10.3926267623901,-1.22751796245575,0.535244524478912,-0.21028417348861705,0.00656660785898566,-0.36101073026657104
9.0355978012085,-0.90463650226593,1.10024976730347,-0.27701923251152,0.434006989002228,0.3503209054470061
7.62667369842529,-0.254835605621338,0.979113101959229,0.0905581042170525,0.976439356803894,1.02042031288147
8.39656448364258,-0.26979073882103,0.159720912575722,0.48058408498764,1.13739764690399,1.310267329216
9.77797031402588,-0.4648058116436,-0.0785144940018654,0.63925164937973,0.591147422790527,1.28033590316772
10.909327507019,-0.4612165689468379,-0.0994516909122467,0.6375718116760251,0.0465771034359932,1.10471725463867
9.914510726928713,-0.0349950306117535,-0.17482560873031602,0.441184431314468,0.206008240580559,1.00194215774536
9.10394287109375,0.270538508892059,-0.143419802188873,0.12797249853611,0.652079463005066,1.07738184928894
9.23240661621094,0.682253539562225,-1.67617225646973,-0.0313059203326702,0.890157163143158,1.08639180660248
10.750054359436,0.873978495597839,-3.2925238609314,-1.5900354385376,1.42113614082336,1.06592845916748
9.64516925811768,0.332602351903915,1.2000005245208702,-2.3910088539123504,0.400715798139572,0.702779769897461
9.22627544403076,0.415603369474411,2.83504629135132,-0.950631022453308,-0.258235692977905,0.7421793937683109
11.5139636993408,-0.0750748068094254,3.0403802394866903,0.943300902843475,-0.6757497787475589,0.6401679515838621
13.895270347595199,-0.4199403822422029,2.25373983383179,2.2932732105255096,-1.1816840171813998,0.32130566239357
14.5793190002441,-0.117846518754959,1.07198452949524,2.53715419769287,-1.03217911720276,-0.00442864280194044
11.9138641357422,0.301645219326019,-1.32756793498993,1.59782373905182,-0.28740364313125605,-0.441031724214554
8.45234680175781,0.265005111694336,-1.1167004108428995,0.14904673397541,0.490815758705139,-0.61481773853302
9.34277629852295,-0.303589373826981,2.14232397079468,0.136371657252312,-0.5222744345664979,-0.8113578557968141
10.118200302124,-0.4969593584537511,2.51680088043213,1.3453910350799598,-0.896571040153503,-0.961015462875366
9.88490009307861,-0.32303106784820595,1.98140668869019,2.02419519424438,-0.733932971954346,-1.1390774250030502
8.50753116607666,0.10319047421217,1.26879417896271,1.59415864944458,-0.881910741329193,-1.00148403644562
8.949456214904789,0.0340977236628532,1.4213366508483898,1.0805888175964398,-0.42759308218956,-0.959030210971832
9.44536781311035,-0.19770696759223896,1.53290200233459,0.8536590337753299,-0.29229041934013394,-0.95964103937149
10.1116199493408,-0.40363925695419295,1.4934204816818202,0.739736020565033,-0.30175855755806,-1.12105739116669
9.842427253723141,-0.5038387179374689,1.2734303474426298,0.532811522483826,-0.215476363897324,-1.20291101932526
10.598857879638699,-0.7440183162689209,0.588783919811249,0.21715620160102805,-0.0809372588992119,-1.20062029361725
11.4442720413208,-1.16036939620972,0.344566464424133,-0.4317162930965421,0.0474933758378029,-1.03844034671783
11.4344024658203,-1.5450156927108798,0.627218663692474,-0.953685283660889,0.26571854948997503,-0.583664536476135
8.82622528076172,-1.19850504398346,1.38619208335876,-0.9177979826927192,0.858087658882141,0.14935214817523998
5.435296535491941,-0.0239282269030809,1.62353014945984,-0.172411635518074,1.34829258918762,1.0642486810684202
8.066952705383299,-0.28683960437774697,1.06809616088867,1.00377476215363,0.7122479081153871,1.6754013299942
11.149356842041,-0.788734138011932,0.315403938293457,2.19981360435486,-0.13973131775856,1.34126782417297
10.172487258911099,-0.452991247177124,-0.709023237228394,2.64924454689026,-0.16050012409687,1.04088377952576
9.089884757995607,-0.390030086040497,-0.9692427515983578,1.88965594768524,-0.14981028437614402,1.40372705459595
9.47393226623535,0.22447668015956895,-0.582353234291077,1.27544903755188,0.316724300384521,1.61095690727234
10.0141124725342,0.368195593357086,-0.542572557926178,1.06165254116058,0.337951242923737,1.4907727241516102
10.3823080062866,0.604038178920746,-0.624078035354614,0.907108187675476,0.0247393138706684,1.15297424793243
10.1451196670532,0.840030312538147,-0.739681303501129,0.6940752267837521,0.0893364101648331,0.8130376935005191
10.3529958724976,0.64591258764267,-0.4930710196495061,0.468061715364456,0.0423011742532253,0.520900011062622
11.118699073791499,0.5116153955459589,-0.133549407124519,0.529451847076416,-0.18279604613781,0.291374146938324
13.0341539382935,0.167348027229309,0.293868541717529,0.6591041684150699,-0.504712522029877,0.151642829179764
14.130664825439501,0.280708014965057,0.393918424844742,0.650094211101532,-0.585955262184143,-0.0670404881238937
12.193076133728,0.6868896484375,0.6835995316505429,0.5650337338447571,-0.23487077653408106,-0.371395140886307
8.98370265960693,0.787986397743225,0.575025200843811,0.7276718020439151,0.161263674497604,-0.604280650615692
9.69317531585693,0.0300598349422216,1.07303142547607,1.15434861183167,-0.498451352119446,-0.8031114339828491
10.8255786895752,-0.375224500894547,1.53409838676453,1.6384450197219802,-1.26827156543732,-0.998582541942596
10.5816602706909,-0.21939192712307,1.40952205657959,1.66058826446533,-1.3279819488525402,-1.09158408641815
9.83121109008789,-0.027667012065649,0.911216795444489,1.2294827699661297,-0.7154548764228821,-1.2056597471237198
9.10080146789551,-0.118295170366764,1.0218847990036,0.8600729703903199,-0.214865520596504,-1.25666546821594
9.304789543151859,-0.371037065982819,1.29541432857513,0.887255668640137,-0.203412130475044,-1.2870551347732502
9.75897789001465,-0.636789917945862,0.940827965736389,1.0088142156601,-0.31076854467392,-1.36432731151581
9.21131992340088,-0.6780661344528199,0.599701166152954,0.8083036541938778,-0.24250635504722606,-1.26216316223145
9.86919689178467,-0.8295617103576659,0.271286278963089,0.5097520351409911,-0.0792574286460876,-1.06012547016144
10.3229360580444,-1.16754794120789,-0.0332004129886627,0.131790295243263,-0.0378725305199623,-0.8156337738037109
10.4706926345825,-1.51734864711761,0.0939182862639427,-0.38575005531311,-0.0720799788832664,-0.29229041934013394
9.42263603210449,-1.22123682498932,0.381804764270782,-0.7896727919578549,0.350931763648987,0.499825775623322
7.56625461578369,-0.28683960437774697,0.486939400434494,-0.8582404255867,1.15526485443115,1.24902987480164
8.18106079101562,0.27921250462532005,0.20234306156635296,-0.50196373462677,1.22658133506775,1.54865050315857
10.7120685577393,0.123230367898941,0.0566799864172935,0.138356909155846,0.396439880132675,1.3273711204528795
11.435299873352099,0.109471634030342,-0.628714144229889,0.824643790721893,0.215934500098228,0.977355599403381
9.99048328399658,0.152841553092003,-0.8201399445533749,0.893974959850311,0.546402871608734,0.957503080368042
8.95693302154541,0.4069294035434721,-0.9032905697822572,0.477835267782211,0.480889499187469,1.08181047439575
9.4039421081543,0.5670989751815799,-0.7488039135932919,0.212269425392151,0.331384629011154,1.07249510288239
9.87458038330078,0.69720870256424,-0.83150589466095,0.0888782739639282,0.184170454740524,0.969109177589417
9.84452056884766,0.6991528868675229,0.342173635959625,-0.189057230949402,-0.0113006746396422,0.8887827396392819
9.92049312591553,0.9230313301086428,0.989282608032227,0.152559101581573,-0.0902526825666428,0.755312621593475
11.0567846298218,0.8902795910835269,1.22138643264771,0.7362236380577091,-0.101095221936703,0.6542174220085141
13.1020498275757,0.795763075351715,1.28255295753479,1.19664978981018,-0.5722111463546751,0.34787750244140603
14.789737701416,0.878913640975952,1.06944215297699,1.41182076931,-0.709804534912109,-0.0652079433202744
13.261471748352099,0.956231772899628,0.176620215177536,1.22780299186707,-0.214865520596504,-0.6103891134262079
9.79487037658691,0.104835540056229,-2.91236424446106,0.381474107503891,1.0107995271682702,-0.9736905097961428
8.13051223754883,-0.367746919393539,1.16874432563782,-0.3687990307807921,-0.0160347409546375,-0.934290885925293
10.4674024581909,-0.60702919960022,3.38763856887817,0.7186617851257321,-1.38036203384399,-0.890920698642731
10.069147109985401,-0.6767201423645021,3.5448172092437704,2.61793875694275,-0.982395112514496,-0.957808494567871
9.00269603729248,-0.366849631071091,2.47313165664673,3.8228349685668905,-0.693464338779449,-0.8504521250724789
8.26944541931152,-0.259471714496613,0.791874766349792,3.70020723342896,-0.87320613861084,-0.884964942932129
8.799455642700199,-0.125174537301064,0.0448654256761074,2.85097694396973,-0.84861958026886,-0.9274188280105592
9.36685371398926,-0.126520499587059,-0.104237332940102,1.8157434463501,-0.705834031105042,-0.935512602329254
9.91391277313232,-0.0483051054179668,0.0810568705201149,0.737292647361755,-0.5409052371978761,-0.819757044315338
10.517502784729,-0.128763765096664,0.49097728729248,-0.0995681062340736,-0.295344650745392,-0.767682313919067
11.128419876098599,-0.292373031377792,0.580708146095276,-0.593590795993805,-0.0649025216698647,-0.796086668968201
11.909526824951199,-0.840927600860596,0.400947332382202,-1.0715788602829,0.0780357345938683,-0.7710419297218319
10.6242818832397,-0.875623524188995,0.891924619674683,-1.39914560317993,0.462105959653854,-0.415986984968185
8.1273717880249,-0.461515665054321,1.3685450553894,-1.14472770690918,1.15526485443115,0.15347537398338298
6.89820861816406,0.24945175647735604,0.8158029913902279,-0.40468630194664,1.33912992477417,0.634364902973175
9.17587661743164,-0.0279661137610674,0.06505486369133,0.272437870502472,0.739736020565033,0.760199427604675
10.386943817138699,-0.0366400964558125,-0.678813874721527,0.645665526390076,0.16844113171100594,0.7551599144935609
9.70693397521973,0.0913759171962738,-0.8941679000854491,0.453706800937653,0.269689053297043,0.94345360994339
8.34885692596436,0.349202543497086,-0.703639388084412,-0.0209215190261602,0.4775298535823821,1.33683919906616
8.56331443786621,0.5335994362831121,-0.7052844762802121,-0.25380703806877103,0.45767730474472,1.70884525775909
10.449007987976099,1.13494563102722,-2.13260316848755,-0.572516620159149,0.502574563026428,1.5675867795944198
10.5635643005371,0.985394299030304,-0.903141021728516,-1.5688084363937398,0.3901786804199221,1.17084145545959
10.5689477920532,0.7785646915435791,1.6438691616058303,-1.32676029205322,-0.402548342943192,0.969720005989075
11.508430480957001,0.6907779574394229,1.71400880813599,-0.0438282899558544,-0.339172929525375,0.56732439994812
12.0761270523071,0.431455820798874,1.6438691616058303,0.942842721939087,-0.622300624847412,0.374754786491394
14.105689048767099,0.13280165195465102,1.3686945438385,1.27010416984558,-1.1393828392028795,0.21410197019577
13.551751136779801,0.779013335704803,0.8252246975898739,1.29743957519531,-0.569004237651825,-0.130568608641624
9.61466026306152,1.1842976808548,0.8309076428413391,1.28094673156738,0.236245170235634,-0.4599680006504061
9.25977516174316,0.111714906990528,1.07647109031677,1.5504831075668302,-0.1270562261343,-0.7695148587226871
10.160223960876499,-0.8060821294784549,1.13778722286224,2.18408441543579,-0.834570050239563,-0.913216650485992
9.57816982269287,-0.712462961673737,1.32517504692078,2.71827030181885,-1.14732384681702,-0.639404356479645
9.55753231048584,-0.24092732369899694,0.8774181604385379,2.7546157836914102,-1.10380101203918,-0.502269148826599
8.84835910797119,0.180508553981781,0.18035900592804,2.2922043800354,-0.739583313465118,-0.718509078025818
9.05728244781494,0.145214423537254,0.340229481458664,1.70197319984436,-0.761421084403992,-0.871831774711609
10.726724624633801,-0.167946234345436,0.570389091968536,1.41655480861664,-0.8860339522361759,-1.20688152313232
11.104043006897,-0.530907511711121,0.0149551415815949,1.08623909950256,-0.743095695972443,-1.6518837213516202
11.752199172973599,-0.8991031050682071,-0.490827739238739,0.329093962907791,-0.591605544090271,-1.79451656341553
12.102746963501,-1.3763216733932502,-0.469890534877777,-0.5656445622444151,-0.38987326622009294,-1.7684028148651103
11.495120048522901,-1.7530417442321795,-0.0936191827058792,-1.19863498210907,-0.0734543800354004,-1.4548854827880902
8.84402179718018,-1.3968101739883405,0.6035895347595209,-1.53948783874512,0.3846810758113859,-0.6919372081756588
6.18978357315063,-0.5038387179374689,1.35897374153137,-1.31729209423065,0.989877998828888,0.203106716275215
7.23813915252686,-0.339780807495117,0.846311450004578,-0.6106945276260379,1.34584927558899,0.642458617687225
8.789585113525389,-0.749103009700775,0.253938317298889,0.18279604613781,1.10273206233978,0.869846522808075
9.43325424194336,-0.561864674091339,-0.514606416225433,0.812579572200775,0.601073682308197,1.30522787570953
8.99626541137695,-0.25154548883438105,-0.8925228714942929,1.01690793037415,0.6384881138801569,1.52665996551514
8.99477005004883,0.0008973084622994071,-1.02652096748352,0.8255600929260251,0.476308137178421,1.78688097000122
10.0259265899658,0.3173480927944181,-1.29018008708954,0.674375355243683,0.381321400403976,1.82521164417267
10.627572059631301,0.558873653411865,-1.6878372430801398,0.546708285808563,0.250905513763428,1.6970864534378098
11.260772705078098,0.946810007095337,-2.53160643577576,-0.16844113171100594,0.529604554176331,1.45732879638672
11.216804504394501,0.700050175189972,-0.8795118927955631,-0.67361181974411,0.0624591335654259,0.788603782653809
11.358280181884801,0.36565321683883706,0.0562313310801983,-0.27793550491333,-0.376740038394928,0.6041279435157779
13.5387401580811,0.0390329211950302,0.5053342580795289,0.5563291311264039,-0.70308518409729,0.372311413288116
14.210226058960002,0.0115154590457678,0.30089744925499,1.03233182430267,-0.679414868354797,0.0627645552158356
11.367103576660199,0.905832946300507,0.211914360523224,0.992932200431824,-0.176534861326218,0.0583359114825726
9.65414237976074,0.846760094165802,0.005084747914224861,0.852742791175842,0.17821468412876104,-0.316113442182541
10.4370441436768,-0.113958179950714,0.229112774133682,1.03294277191162,-0.356887519359589,-0.7751652002334591
