ax,ay,az,wx,wy,wz
11.9141626358032,-3.45762872695923,2.78195548057556,-0.809601664543152,-0.80433315038681,1.12495160102844
9.72502899169922,-3.3807592391967796,2.3066809177398704,-0.42591324448585494,-0.25922831892967196,0.5335750579833979
8.12662410736084,-3.76002168655396,2.0279171466827397,0.15355172753333998,0.40522080659866294,-0.314128190279007
8.17448043823242,-4.4090747833252,2.2079770565033,0.617184817790985,0.850528478622437,-1.1350305080413798
8.399106979370119,-4.9031925201416,2.90907406806946,0.7219451069831851,0.8150229454040531,-1.5847668647766102
8.33150959014893,-4.92592430114746,2.67368030548096,0.427287667989731,0.406900644302368,-1.71907687187195
8.35842895507812,-4.765605449676509,1.2840484380722,0.34528142213821394,0.532658815383911,-1.58049094676971
8.373682975769041,-4.74646282196045,0.346361070871353,0.771500110626221,1.42411398887634,-1.4073920249938998
8.79990482330322,-4.78056049346924,0.8685946464538571,1.29178929328918,2.12215971946716,-1.43358218669891
9.50249671936035,-4.643272399902339,2.12422823905945,1.80596995353699,1.3907464742660502,-1.40227627754211
9.5769739151001,-4.39322233200073,2.58544492721558,2.2242476940155,-0.29053422808647195,-1.3412678241729699
9.433403968811039,-4.3965125083923295,2.7493531703948997,2.5200502872467,-1.0165262222290001,-1.6011070013046298
10.1015996932983,-4.51166725158691,2.8106691837310804,2.24990320205688,-1.6258463859558099,-2.06069326400757
10.6800651550293,-3.71904468536377,2.30398917198181,1.4299170970916701,-1.84491145610809,-2.19294166564941
9.80130100250244,-2.75324153900146,1.62023997306824,0.469970613718033,-1.3089693784713703,-1.3009519577026398
8.65274620056152,-2.82442808151245,1.22243320941925,-0.15767495334148401,-0.477300763130188,-0.3937674164772029
8.53280544281006,-3.09631252288818,1.21794676780701,-0.477224409580231,0.0886492058634758,-0.187911882996559
8.99611568450928,-2.92313194274902,1.70548439025879,-0.8124268651008609,0.32222193479538,0.09292513877153401
9.00778102874756,-2.59411883354187,2.24686050415039,-1.37020671367645,0.0503949001431465,0.703543305397034
8.69312477111816,-2.33928322792053,2.1858434677124,-1.95211517810822,-0.43477052450180104,1.31072545051575
8.72064208984375,-2.14845561981201,1.52871453762054,-2.27387881278992,-0.532658815383911,1.79535639286041
8.93330383300781,-2.15593314170837,0.96789675951004,-2.38268613815308,-0.0413849018514156,2.2349374294281
9.38016414642334,-2.4170498847961404,0.676869690418243,-2.43964767456055,0.681171059608459,2.5483019351959197
9.965508460998539,-2.90189576148987,0.68165534734726,-2.41002154350281,1.3602805137634297,2.66688275337219
10.720144271850598,-3.74117827415466,1.3402798175811799,-2.25379729270935,1.69952976703644,2.54501867294312
12.013764381408699,-4.21854639053345,2.16939282417297,-2.05634093284607,1.2194038629531898,2.07695698738098
12.482458114624,-3.63798761367798,2.42422842979431,-1.55895853042603,0.216850772500038,1.7864991426467902
11.127821922302198,-3.1794631481170694,2.1185452938079803,-0.7200362086296078,-0.524641454219818,1.78978252410889
10.063314437866199,-3.4567313194274902,1.4380863904953,0.058870404958724996,-0.744241058826447,0.9897252917289731
9.98674488067627,-3.8814573287963903,0.88384884595871,0.746760785579681,-0.36666107177734397,-0.20005246996879603
9.673882484436039,-4.21106863021851,0.923330426216125,1.0412654876709,0.130797669291496,-1.1105203628540001
9.2952184677124,-4.433002948760991,1.12492573261261,0.6888830065727231,0.293053984642029,-1.94852638244629
9.241679191589359,-4.74915456771851,1.2834502458572399,0.23739051818847698,0.242811784148216,-2.70185375213623
9.15314483642578,-4.77188634872437,1.53529477119446,0.11987877637147899,-0.0826170891523361,-3.46655821800232
9.32841873168945,-4.24456834793091,1.84157609939575,-0.122933007776737,-0.599622964859009,-3.91514921188354
9.89013385772705,-3.7537405490875204,1.8284156322479201,-0.742561221122742,-0.9406284093856808,-3.7226560115814196
9.86740207672119,-3.35473728179932,1.0175478458404499,-1.3222552537918102,-0.8522846102714542,-3.2053446769714395
9.45493984222412,-2.9027929306030296,0.31046873331069896,-1.3094274997711202,-0.211353152990341,-2.6865062713623
9.15045261383057,-2.36081862449646,0.0774676352739334,-0.863661646842957,0.40781688690185497,-2.0967333316803
9.30449104309082,-2.18045973777771,0.37896329164505,-0.38681903481483504,0.733474850654602,-1.30667865276337
9.396913528442381,-1.97557413578033,0.891027331352234,-0.22631891071796398,0.501887381076813,-0.48264569044113204
9.004191398620609,-1.8349958658218402,1.13300156593323,-0.38758260011672996,0.0420721061527729,0.428051203489304
8.747561454772951,-2.1496520042419403,1.31336057186127,-0.6484907269477839,-0.336347758769989,1.0319501161575302
8.48584651947021,-2.4460630416870095,1.10578310489655,-0.9943829774856571,-0.835104584693909,1.29377448558807
8.13948535919189,-2.5019950866699197,0.5234299302101141,-1.20825588703156,-0.8367843627929691,1.40815567970276
8.23130989074707,-2.49302220344543,0.404985219240189,-1.21291363239288,-0.195165693759918,1.5996562242507901
8.85643482208252,-2.57856559753418,0.821336388587952,-1.45870327949524,0.20112146437168102,1.9657828807830802
9.92034339904785,-2.81724953651428,1.0962119102478,-1.82895302772522,0.17890189588069896,2.40673828125
10.9953193664551,-3.10169625282288,0.8440681695938109,-1.94157803058624,0.0513875260949135,2.78508162498474
11.657832145690902,-3.43998169898987,0.6317051649093629,-1.69006168842316,0.23487077653408103,3.03003144264221
12.1432762145996,-3.75882530212402,0.69720870256424,-1.3680688142776498,0.48722705245018,3.130286693573
12.421142578125,-3.94905471801758,1.02382898330688,-1.14152085781097,0.560299634933472,3.1769402027130096
12.773186683654801,-4.3363928794860795,1.5846468210220301,-1.05783474445343,0.363683193922043,3.21053671836853
12.7247314453125,-4.31396007537842,1.57537460327148,-0.982624173164368,-0.101095221936703,3.1391441822052
10.847861289978,-3.9577286243438703,1.31545424461365,-0.574501872062683,-0.32168743014335605,2.87365460395813
8.64287567138672,-4.055834293365479,1.08873426914215,0.0584886260330677,-0.31557896733284,1.8973679542541497
8.1460657119751,-4.64775896072388,1.1572288274765,0.76760596036911,-0.162256300449371,0.344975978136063
8.29681301116943,-5.36351203918457,2.08444762229919,1.0894460678100601,-0.22059221565723397,-1.03760039806366
8.07816886901855,-5.74397087097168,2.6392834186554,0.6304707527160639,-1.10960400104523,-2.18797850608826
8.073084831237791,-5.84028196334839,1.89900386333466,0.0552816763520241,-1.6590611934661899,-3.06164288520813
8.43858814239502,-5.89053106307983,0.927816987037659,0.0283280424773693,-0.9268079996109009,-3.5936908721923797
8.94377326965332,-5.846862316131589,0.6741777658462521,0.24617144465446497,0.25220355391502397,-3.80870890617371
9.58923721313477,-5.616253852844241,1.06959176063538,0.43835926055908203,0.99736088514328,-3.7022688388824503
10.1844511032104,-5.27856683731079,1.61246335506439,0.547853648662567,0.985372960567474,-3.3485119342803995
10.55384349823,-4.89870595932007,2.14008069038391,0.631768763065338,0.5359421372413641,-2.9338231086730997
10.712965965271,-4.30349159240723,2.1894326210022,0.5066214203834529,-0.190202564001083,-2.50187754631042
10.776076316833501,-4.07677173614502,1.5765709877014198,0.21211670339107502,-0.5943543910980219,-1.9554747343063401
10.8266248703003,-4.29691123962402,0.9990034699439999,-0.0271063465625048,-0.29099234938621504,-1.6192033290863002
10.2338037490845,-3.7010984420776403,0.6011967062950129,-0.31351736187934903,0.29313033819198603,-1.476646900177
8.949456214904789,-2.79242396354675,0.366700083017349,-0.629936218261719,0.895349383354187,-1.09387469291687
8.16730213165283,-2.55074882507324,0.530010223388672,-0.7777612805366519,1.2456703186035198,-0.6768951416015621
8.219944000244139,-2.65094828605652,0.799800992012024,-0.682621836662292,1.05577313899994,-0.45836451649665794
8.41615581512451,-2.65154647827148,0.865005373954773,-0.414918005466461,0.5897729992866519,-0.207611709833145
8.26211738586426,-2.58305215835571,0.908973515033722,-0.12178767472505599,0.21540001034736603,0.17500774562358898
7.851449489593509,-2.51455760002136,1.06989085674286,-0.0126750804483891,-0.083075225353241,0.5696914196014399
7.6800632476806605,-2.48763823509216,1.2000005245208702,-0.10101886838674498,-0.383459359407425,0.9082534909248349
8.15384197235107,-2.55194544792175,1.2460623979568501,-0.20486289262771598,-0.5909947156906129,1.25399303436279
9.19741249084473,-2.75802731513977,1.36331069469452,-0.291679561138153,-0.61061817407608,1.70204949378967
10.4997053146362,-3.11695051193237,1.59990108013153,-0.506926894187927,-0.5191438198089601,2.22126960754395
11.8486595153809,-3.56261372566223,1.7234305143356299,-0.9060391783714291,-0.404304534196854,2.68933153152466
12.9676036834717,-4.3055853843689,1.46380925178528,-1.40578866004944,-0.131637588143349,3.02209043502808
13.395319938659698,-4.61306285858154,0.8988040089607242,-1.80154132843018,0.4985277056694029,3.02277755737305
12.384950637817399,-4.16889524459839,0.576072037220001,-1.89019048213959,1.25353491306305,2.82646656036377
10.6824579238892,-4.09531593322754,0.912861824035645,-1.7082343101501498,1.63523817062378,2.4608745574951203
9.9771728515625,-4.2248272895813,1.5879368782043501,-1.42189967632294,1.37165749073029,1.63424551486969
9.44536781311035,-4.36480760574341,2.22442770004272,-1.16183149814606,0.664220035076141,0.728664398193359
8.46012401580811,-4.81914472579956,2.46759843826294,-1.1744302511215199,-0.0853659063577652,-0.17210622131824502
7.8149585723877,-5.57527685165405,2.02911353111267,-1.3944115638732901,-0.41415444016456604,-1.21077561378479
7.914559841156009,-6.12263488769531,1.4261223077774001,-1.43572008609772,-0.0133622838184237,-2.14674639701843
8.13559722900391,-6.23778963088989,1.5242279767990101,-1.23803472518921,0.743553817272186,-2.55311250686646
8.30100059509277,-6.3610200881958,2.17806673049927,-1.1767972707748402,1.06325602531433,-2.38925266265869
8.70299530029297,-6.26590538024902,2.6051857471466096,-1.16824543476105,0.795475840568542,-2.3629097938537598
9.1211404800415,-5.704190254211429,2.59112787246704,-1.1434297561645501,0.6055787205696109,-2.18668055534363
9.04337406158447,-4.98095941543579,2.1963121891021697,-1.3296617269516002,0.7550072073936459,-1.67662298679352
8.68175888061523,-4.38664197921753,1.41894388198853,-1.5654487609863301,1.23543858528137,-1.24353229999542
8.38295459747314,-4.11744976043701,0.625723123550415,-1.4913835525512702,1.9167623519897499,-1.02744507789612
8.19272518157959,-4.10847663879395,0.520738005638123,-1.22383248806,2.59197759628296,-1.05073368549347
8.35244655609131,-3.9140596389770494,1.2858430147171,-1.2685770988464398,2.7808821201324503,-1.1753464937210099
8.77896690368652,-3.25693082809448,2.2411775588989302,-2.06397652626038,2.4035313129425,-1.0791380405426
8.91775131225586,-2.70568418502808,2.55643200874329,-3.3278195858001696,1.72892677783966,-0.776692271232605
8.59232711791992,-2.8654050827026403,2.3605196475982697,-4.18224191665649,1.1262496709823602,-0.81089973449707
8.338987350463869,-3.19381999969482,2.3380868434906,-4.05892753601074,0.6405497193336489,-1.52383482456207
8.36022281646729,-3.06101846694946,2.64706015586853,-3.4189884662628196,0.18585027754306802,-2.43315744400024
8.41376304626465,-2.4936203956604,3.12412905693054,-3.1757185459137003,-0.193562224507332,-2.9369535446167006
8.29561710357666,-1.7904295921325701,3.4046874046325697,-3.3299574851989706,-0.635433852672577,-2.96337270736694
7.9495549201965305,-1.20239341259003,3.42622303962708,-3.4363975524902304,-0.973614156246185,-2.75156140327454
7.5035924911499,-0.7498508095741271,3.4642090797424303,-3.3698153495788596,-1.19527542591095,-2.45820212364197
7.223333358764651,-0.31405797600746194,3.7986059188842796,-3.2209212779998797,-1.331876039505,-2.065274477005
7.27059173583984,0.117846518754959,4.25055027008057,-3.0377433300018297,-1.75229167938232,-1.4428212642669698
7.91575622558594,0.42921257019042997,4.37946367263794,-2.7000975608825697,-2.3103005886077903,-0.6455891728401179
9.37657451629639,0.312861561775208,4.20837688446045,-1.99663066864014,-2.37107992172241,0.22181391716003399
11.0748805999756,-0.0744766071438789,4.18145751953125,-1.05187892913818,-1.71716797351837,1.0197331905365001
11.817852020263699,-0.262612283229828,4.21435880661011,-0.215629085898399,-0.5298336148262021,1.4548090696334801
11.1233348846436,-0.414556533098221,3.8455650806427,0.34902286529541,0.7803573608398441,1.48168635368347
10.1931257247925,-0.480359137058258,3.65593385696411,0.9852966070175171,1.97578549385071,1.05149722099304
10.017850875854501,-0.26321050524711603,4.08544540405273,1.5804145336151103,2.34053754806519,0.695373237133026
10.2224378585815,0.156131684780121,4.49701118469238,1.9000403881073,1.7345771789550801,0.761039316654205
10.587043762207001,0.44237309694290206,4.480560302734379,1.97212040424347,0.838922381401062,1.0493592023849498
10.7111711502075,0.442971289157867,3.9116668701171897,1.9267649650573702,0.26426780223846397,1.1588536500930802
10.3600244522095,0.071186475455761,3.1414771080017103,2.05160689353943,0.30000236630439797,0.7636354565620419
10.0295162200928,-0.490827739238739,2.67278289794922,2.14865517616272,0.572516620159149,-0.0729198902845383
9.86770153045654,-0.931107103824615,2.54147672653198,1.93440055847168,0.71301144361496,-0.797461092472076
9.60299587249756,-1.15633153915405,2.55074882507324,1.38792133331299,0.562284886837006,-1.12029385566711
9.21296501159668,-1.28225386142731,2.5441687107086204,0.6294017434120179,0.297253549098969,-1.1065498590469398
8.86660385131836,-1.44616222381592,2.52442789077759,-0.17500774562358898,0.00557398144155741,-0.9527690410614009
8.69761085510254,-1.73449730873108,2.50169610977173,-0.892371475696564,-0.303514719009399,-0.7404232621192929
8.75773048400879,-2.16490626335144,2.54267311096191,-1.46084117889404,-0.59527063369751,-0.5689278841018679
8.89651489257812,-2.6581268310546897,2.64586353302002,-1.93180441856384,-0.883437871932983,-0.474017471075058
9.24227714538574,-3.35473728179932,2.7667012214660605,-2.40620374679565,-1.1548067331314098,-0.433396130800247
9.98136043548584,-3.6323046684265097,2.6240291595458998,-2.899080991745,-1.331876039505,-0.47004696726798995
10.4282197952271,-3.0308089256286603,1.9941185712814298,-3.31163215637207,-1.2485717535018899,-0.29099234938621504
10.4901342391968,-2.31714963912964,1.22452700138092,-3.50061297416687,-0.766995072364807,0.23670330643653895
10.860424041747999,-2.2043879032135,1.02053880691528,-3.32308554649353,-0.20692451298236803,0.768369495868683
11.3016004562378,-2.70299220085144,1.6220346689224199,-2.86220121383667,-0.11919157207012199,0.995451986789703
11.0650100708008,-3.0230321884155296,2.30159616470337,-2.34389734268188,-0.751952946186066,0.8079982399940491
10.183553695678699,-2.81515574455261,2.4840490818023704,-1.84109365940094,-1.60492479801178,0.42942562699317893
9.43968486785889,-2.3153550624847403,2.3518455028533904,-1.3742536306381201,-2.09940576553345,0.13950224220752697
9.159425735473631,-1.75124704837799,2.2528424263000497,-0.9904124736785892,-2.18889474868774,0.12438376992940899
9.06311511993408,-1.35583317279816,2.22412872314453,-0.691860854625702,-2.02075910568237,0.413009107112885
8.96949577331543,-1.29182517528534,2.1352951526641797,-0.46561831235885603,-1.68166255950928,0.6694122552871701
9.01077175140381,-1.34805643558502,1.99262309074402,-0.279844403266907,-0.928564190864563,0.557016372680664
9.21775150299072,-1.2448660135269198,1.9097715616226203,0.0825407356023788,-0.0989572554826736,0.184628590941429
9.41156959533691,-1.16171538829803,1.91395902633667,0.560146927833557,0.518991112709045,-0.0852895453572273
9.70080184936523,-1.6121642589569098,2.16700005531311,1.08608639240265,0.80364590883255,-0.285342037677765
10.606485366821301,-2.45413875579834,2.5633113384246804,1.6268389225006101,0.761421084403992,-0.6130616068840029
11.4329061508179,-2.58394932746887,2.15383958816528,2.05366849899292,0.482111185789108,-0.916958093643188
10.9022979736328,-2.2698912620544403,1.6232310533523602,2.52142477035522,0.7990645766258241,-0.8918370008468629
10.345967292785598,-2.61326146125793,1.5107684135437,2.8922853469848597,1.3917391300201398,-0.924364626407623
10.833205223083501,-2.9012975692749,1.3812568187713603,3.2768137454986603,1.74694681167603,-1.25170242786407
11.4870443344116,-2.76999139785767,1.7904295921325701,3.63660287857056,1.86377131938934,-1.3556227684021003
11.6614208221436,-2.52083873748779,2.3464617729187003,3.59643959999084,1.46656787395477,-1.07218968868256
11.168200492858901,-2.37338089942932,2.6030919551849396,3.20542097091675,0.866944968700409,-0.6525375843048101
10.2906332015991,-2.51844573020935,2.56809687614441,2.6529860496521,0.282440513372421,-0.40903860330581704
9.413064956665039,-2.84775805473328,2.21366000175476,2.14903712272644,-0.20348849892616297,-0.478293389081955
8.75892734527588,-3.14327168464661,1.8155541419982901,1.78787362575531,-0.382084965705872,-0.742561221122742
8.49481964111328,-3.3529427051544203,1.67078840732574,1.4359492063522301,-0.404991745948792,-0.888324618339539
8.57677364349365,-3.4328031539917006,1.7090735435485802,0.9877400398254391,-0.380710542201996,-0.781960844993591
8.88604640960693,-3.5682966709137003,1.7350955009460403,0.39010232686996504,-0.413314521312714,-0.42095011472702004
9.61795043945312,-3.7773697376251203,1.92113745212555,-0.26266431808471696,-0.23968119919300102,0.0457371883094311
10.197013854980499,-3.295814037323,1.7835501432418799,-1.0122503042221098,-0.257701188325882,0.47157409787178
9.904191970825199,-2.45443773269653,1.13599252700806,-1.66539871692657,-0.13125580549240098,1.11548340320587
9.70229721069336,-2.09312152862549,0.7025925517082211,-1.9559329748153702,0.31725880503654497,1.64745509624481
10.303494453430199,-1.91276264190674,0.779162883758545,-1.9034000635147101,0.58786416053772,1.8572810888290399
11.0629167556763,-1.62951219081879,1.49880433082581,-1.7216730117797898,0.459815263748169,2.0577154159545903
11.256734848022498,-1.45752811431885,2.3446671962737997,-1.7036529779434197,-0.16622680425643901,2.32496094703674
11.1026973724365,-1.43359982967377,2.5232315063476602,-1.6628025770187398,-1.0805888175964398,2.44308352470398
10.943573951721199,-1.4850455522537198,2.10777759552002,-1.30041742324829,-1.71777880191803,2.36573505401611
10.801500320434599,-1.51435768604279,1.6642081737518302,-0.693617045879364,-1.85025632381439,2.15102219581604
10.6728858947754,-1.4820544719696,1.4856437444686899,-0.0837624296545982,-1.64440083503723,1.89652800559998
10.433304786682099,-1.56939256191254,1.6764713525772101,0.38521555066108704,-1.3231714963913002,1.6395140886306798
10.024431228637699,-1.9013967514038101,2.02672076225281,0.630317986011505,-1.17351388931274,1.24024903774261
9.76181888580322,-2.5591237545013397,2.2079770565033,0.788069307804108,-1.16992521286011,0.579235911369324
10.3205432891846,-3.4073793888092,2.1741783618926998,1.1024266481399498,-1.01484632492065,-0.283814907073975
11.133504867553699,-3.6080775260925297,2.00847554206848,1.47000396251678,-0.73087877035141,-1.15557026863098
10.5927267074585,-3.28773832321167,2.08923316001892,1.7984106540679898,-0.20555010437965401,-1.43579649925232
9.57906723022461,-3.73609352111816,2.40030026435852,1.9166859388351398,0.18585027754306802,-1.4949723482132
9.83838939666748,-4.54486751556396,2.63778781890869,2.0167121887207,0.199212566018105,-2.0471782684326203
10.566106796264599,-4.57088947296143,3.11425876617432,2.19164371490479,-0.0116060981526971,-2.55441045761108
10.558629035949698,-4.15394020080566,3.6466617584228502,2.10665941238403,-0.48539450764656106,-2.4320883750915496
9.98495006561279,-4.02741956710815,3.48065972328186,1.7462595701217698,-0.923142910003662,-2.06878685951233
9.18305492401123,-4.15962314605713,2.81695055961609,1.4523657560348502,-0.845641672611237,-1.92149639129639
8.52682304382324,-4.240081787109379,2.28006076812744,1.27369284629822,-0.364599466323853,-1.9650192260742199
8.51097106933594,-4.09142780303955,2.01744866371155,1.0414946079254201,0.0959793776273727,-1.94936633110046
8.99641513824463,-3.64995193481445,1.87387919425964,0.7133168578147892,0.38872793316841103,-1.5976710319518999
9.41725254058838,-3.2904303073883097,1.85174560546875,0.30931776762008695,0.62879091501236,-0.800897121429443
9.62991428375244,-3.4932219982147203,1.9947167634963998,-0.0871220901608467,0.710109949111938,0.0498604066669941
9.87428188323975,-3.9293138980865496,2.20498609542847,-0.46531289815902704,0.6526139378547671,0.444544106721878
9.77198886871338,-3.62303256988525,2.0706889629364,-0.8821398019790649,0.39682164788246205,0.45279052853584295
9.1348991394043,-2.82712006568909,1.60857498645782,-1.1577845811843899,0.35406234860420205,0.8391514420509342
8.97487926483154,-2.2974088191986097,1.5535401105880702,-1.02362728118896,0.551518738269806,1.3460019826889
9.58175945281982,-1.97976160049438,1.95074868202209,-0.6681141853332521,0.291908621788025,1.7514518499374399
10.2050895690918,-1.62562394142151,2.1541385650634797,-0.307179808616638,-0.38025242090225203,2.13941621780396
10.4452686309814,-1.32921302318573,1.9286150932312,0.0211505871266127,-0.860378384590149,2.45010828971863
10.183553695678699,-1.25862467288971,1.6336996555328402,0.34321981668472307,-0.886415719985962,2.542804479599
9.59791088104248,-1.36241340637207,1.55952215194702,0.544341266155243,-0.6674270033836359,2.3458826541900604
9.3095760345459,-1.46440744400024,1.60947227478027,0.592674553394318,-0.464396625757217,1.9195111989975
9.29013347625732,-1.5335001945495599,1.76111745834351,0.60489147901535,-0.35772743821144104,1.45030415058136
9.478269577026369,-1.77248334884644,2.07188534736633,0.5938199162483221,-0.388804286718369,1.0161443948745699
9.97896766662598,-2.23340082168579,2.24985146522522,0.5691569447517401,-0.545028448104858,0.560986876487732
10.780862808227502,-2.83728933334351,2.3012971878051802,0.658722400665283,-0.60825115442276,0.0505476109683514
11.888140678405799,-3.2676985263824503,2.3195424079894997,0.755694389343262,-0.5722111463546751,-0.49493899941444397
12.379267692565902,-3.06580400466919,2.0874385833740203,0.8633562326431271,-0.5292227864265441,-0.860760152339935
11.3201446533203,-2.81904411315918,1.93758809566498,1.1130400896072399,-0.200892388820648,-0.846939742565155
10.1877412796021,-3.14446806907654,2.2217357158660898,1.2095539569854699,0.17775654792785603,-1.17603373527527
10.3740825653076,-3.59491682052612,2.7227330207824703,1.10624444484711,0.10040801763534499,-1.95967435836792
10.676176071167001,-3.81505656242371,3.1764719486236603,1.04141819477081,-0.378801643848419,-2.38245701789856
10.3884391784668,-3.85782837867737,3.2554352283477797,0.8904625773429871,-0.933832764625549,-2.4716408252716096
9.87517929077148,-3.8006997108459504,2.86241412162781,0.622453331947327,-1.06928813457489,-2.40719628334045
9.26680374145508,-3.68345141410828,2.36380958557129,0.45996800065040605,-0.6901810169219971,-2.26051664352417
8.847761154174801,-3.5099716186523398,2.0877377986908,0.48577627539634705,-0.17829103767871898,-2.03618288040161
8.583653450012209,-3.2895328998565696,1.98723924160004,0.55350399017334,0.12957596778869598,-1.6810516119003303
8.49242687225342,-3.2204401493072496,2.00069880485535,0.46485477685928295,0.24143737554550196,-1.2225344181060802
8.734400749206541,-3.23449802398682,2.11734890937805,0.0797919258475304,0.25006559491157504,-0.735765516757965
9.00449085235596,-3.3840494155883802,2.18674087524414,-0.491732031106949,0.165081471204758,-0.19180603325367
9.43071269989014,-3.7235312461852996,2.18703985214233,-1.01759517192841,0.0409267656505108,0.218759670853615
9.593423843383789,-3.37118792533875,1.7964116334915199,-1.45664167404175,-0.11880978941917401,0.4896704256534579
9.12682342529297,-2.49840593338013,1.03160572052002,-1.6947193145752,0.14240376651287098,1.12029385566711
8.85613536834717,-2.1843478679657,0.8231309652328491,-1.58186531066895,0.800897121429443,1.85422682762146
9.39870834350586,-2.37068891525269,1.28524482250214,-1.3729555606841999,0.8932877779006959,2.19240713119507
10.4015998840332,-2.4496521949768097,1.72821617126465,-1.0750911235809302,0.290457874536514,2.30946087837219
11.007582664489698,-2.2402801513671897,1.8586249351501498,-0.611458122730255,-0.45928078889846796,2.5005795955658
10.9334049224854,-1.98514544963837,1.80059909820557,-0.129957750439644,-0.9084826111793521,2.73995542526245
10.7342023849487,-1.8927227258682298,1.564906001091,0.15897299349308,-1.02347457408905,2.8098974227905296
10.6992073059082,-1.91276264190674,1.33698964118958,0.391858518123627,-0.8259418606758121,2.6755108833312997
10.5218391418457,-1.93519532680511,1.4144573211669902,0.5707604289054871,-0.5027272701263429,2.38352608680725
10.1727867126465,-2.10299205780029,1.6564314365386998,0.5845808386802671,-0.331766426563263,1.9686080217361497
9.97597694396973,-2.42841577529907,1.7751753330230702,0.524488747119904,-0.32565793395042403,1.37860596179962
10.1922283172607,-2.91356062889099,1.94715940952301,0.5396072268486021,-0.36910444498062106,0.672161042690277
11.3416805267334,-3.54646229743958,2.20528507232666,0.573814630508423,-0.532582461833954,-0.08368607610464099
12.290434837341301,-3.40319204330444,2.04317140579224,0.60489147901535,-0.784556925296783,-0.667350649833679
11.2794666290283,-3.15792775154114,1.7404793500900302,0.6533774733543399,-0.6499415040016171,-0.8202915191650391
9.82881832122803,-3.7474594116210898,1.63011038303375,0.5975613594055179,-0.277706444263458,-1.3891429901123
9.87458038330078,-4.37736988067627,1.70010054111481,0.6141305565834051,0.066124215722084,-2.5106585025787402
10.5119686126709,-4.34895515441895,2.2010977268219,0.740652322769165,0.15095563232898698,-3.2397048473358194
10.5347003936768,-3.9460637569427504,2.79960250854492,0.546097457408905,-0.24632415175437902,-3.1490702629089395
10.0582304000854,-3.8524444103241002,2.82592344284058,0.0388651564717293,-0.7057576775550841,-2.6872696876525897
9.46690368652344,-4.08245468139648,2.2417757511138903,-0.180047228932381,-0.768369495868683,-2.46026372909546
9.09272575378418,-4.227519512176509,1.72971165180206,0.126369029283524,-0.33252996206283597,-2.46904468536377
8.92223739624023,-4.26251459121704,1.7330018281936599,0.441947996616364,0.0911689549684525,-2.30709385871887
8.900702476501461,-4.26640272140503,2.18793725967407,0.38193225860595703,0.217461630702019,-1.8507908582687398
8.95214748382568,-4.2640099525451705,2.39252352714539,0.0125987250357866,-0.0740652307868004,-1.2178766727447499
9.324530601501461,-4.4575295448303205,2.10867500305176,-0.24998924136161801,-0.486768901348114,-0.548998951911926
9.74447154998779,-3.80309247970581,1.5870395898818999,-0.22280654311180104,-0.7247702479362491,0.0393996499478817
9.22044277191162,-2.51545476913452,0.6834499835968021,-0.14690876007080098,-0.5525113344192499,0.977890133857727
8.72662448883057,-2.06470680236816,0.213260322809219,-0.0893364101648331,0.269689053297043,1.9692188501358
9.30658435821533,-2.25583362579346,0.45343989133834794,-0.25258535146713296,1.06776106357574,2.46690654754639
10.2813606262207,-2.42512583732605,0.87248295545578,-0.6258893609046939,1.40807926654816,2.65054249763489
10.6405830383301,-2.38893437385559,1.2655041217803997,-1.01095223426819,1.39303719997406,2.69818878173828
10.5403833389282,-2.20498609542847,1.49671053886414,-1.2153569459915199,1.09700536727905,2.5805242061615
10.5762758255005,-1.987837433815,1.605584025383,-1.1588536500930802,0.7137750387191769,2.34565353393555
