ax,ay,az,wx,wy,wz
8.61176872253418,-2.02627205848694,-1.70354020595551,-0.756381630897522,-0.317640572786331,0.0400104969739914
6.5552873611450195,-1.09157574176788,-0.13788640499114999,-0.794406831264496,-0.140036731958389,1.3501251935958898
8.489734649658201,-0.6468098759651179,-0.6140581369400021,-0.375365644693375,0.267856508493423,1.9938054084777799
10.481011390686001,-0.510718107223511,-2.2295124530792205,-0.007788302376866341,0.36513394117355297,1.98281025886536
10.30588722229,-0.327667146921158,-2.30563426017761,0.181421637535095,0.0013744062744081,2.08085107803345
9.94053268432617,-0.0768694281578064,-1.49521505832672,0.267856508493423,-0.39369106292724604,1.9368439912796
8.57497882843018,0.235393926501274,-1.23080813884735,0.23975755274295799,-0.0600157417356968,1.8815622329711899
8.944520950317381,0.0517447888851166,-1.02367949485779,-0.0203106720000505,0.0510057471692562,1.89423739910126
10.177422523498501,0.0833001360297203,-1.4904294013977097,-0.192264169454575,-0.20432840287685397,1.8546849489212
10.9784202575684,0.5593222975730899,-1.81540465354919,-0.12797249853611,0.0481042228639126,1.8818676471710198
11.940035820007301,0.794117987155914,-1.87507569789886,-0.191042482852936,0.110410645604134,1.60576474666595
13.0186004638672,0.989432156085968,-2.11764812469482,-0.286640077829361,-0.044897273182869006,1.15465402603149
15.369997024536099,0.7136593461036679,-2.42108798027039,-0.29122143983840904,-0.306645333766937,0.6195518374443051
13.4938745498657,1.6188941001892099,-2.0893828868866,-0.119573347270489,0.0945286154747009,0.172869771718979
11.423335075378402,1.02472627162933,-1.3417752981185902,0.110410645604134,0.414001733064651,-0.543195903301239
11.357382774353,0.13728819787502303,-1.15947210788727,0.445002228021622,-0.532811522483826,-1.2027583122253402
11.186744689941401,0.0351445823907852,-0.397058993577957,1.09524917602539,-0.8889354467391971,-1.51031982898712
9.73370361328125,-0.0237786751240492,0.199202477931976,1.58484315872192,-0.5270084738731379,-1.75038278102875
8.575428009033201,-0.41171506047248796,-0.5754738450050351,1.39532780647278,-0.232121959328651,-1.96433210372925
8.18180847167969,-1.0185947418212902,-1.72821617126465,0.6792621612548829,-0.0030542362947017,-1.9156169891357402
8.241330146789549,-1.68409848213196,-1.5925730466842698,-0.11621369421482099,-0.127667084336281,-1.5597984790802
9.726823806762699,-1.87911355495453,-0.67028945684433,-0.38193225860595703,-0.506086945533752,-1.3351594209671
11.0356979370117,-3.0981070995330797,-0.52043890953064,-0.20112146437168102,-0.507614076137543,-1.5985872745513898
10.817053794860803,-3.66954302787781,-0.33753755688667303,0.09666658192873,-0.469894260168076,-1.42266321182251
10.0701942443848,-4.61725044250488,-1.0812567472457901,0.32084751129150396,-0.191347897052765,-0.879772782325745
10.0266742706299,-4.48474788665771,-2.4801607131958,-0.0109952501952648,-0.101247936487198,0.18523943424224898
8.737391471862791,-3.3530921936035196,-0.9809077382087711,-0.652842998504639,0.17012095451355,1.23543858528137
10.197013854980499,-2.6551358699798597,-0.6656533479690551,-0.66872501373291,0.20555010437965401,1.62576997280121
11.0090780258179,-2.02178549766541,-1.29541432857513,-0.21608722209930398,0.378878027200699,1.5561333894729599
10.228269577026401,-1.3534402847290001,-1.34042930603027,0.226777046918869,0.5372401475906371,1.45580172538757
9.0563850402832,-0.930957555770874,-0.8696414828300479,0.38529190421104403,0.500742018222809,1.29789769649506
8.53684329986572,-0.43325045704841597,-0.69885379076004,0.264344155788422,0.520594596862793,1.32019364833832
9.438638687133789,-0.0927218794822693,-1.08170533180237,-0.0294733811169863,0.661853015422821,1.36280024051666
10.0785694122314,0.218345060944557,-1.55877435207367,-0.491884768009186,0.886950194835663,1.29240012168884
10.5444211959839,0.491276413202286,-2.72991156578064,-1.15068352222443,1.1627477407455402,1.20856130123138
11.6090784072876,0.6306583285331729,-3.4507493972778303,-1.8898086547851598,0.8316685557365421,1.0424108505249
12.3851003646851,0.797109067440033,-2.9552855491638197,-2.15797066688538,0.374754786491394,0.9106205701828
13.692777633667,0.12352947145700502,-1.9021444320678702,-1.8925575017929097,0.157751306891441,0.503643572330475
12.103644371032699,0.7709375619888309,-1.4313565492629998,-1.2754490375518799,0.333828032016754,0.406824260950089
11.4898853302002,0.45463630557060203,-1.0305588245391801,-0.687050461769104,0.441795289516449,0.11315945535898199
11.402547836303699,0.153589308261871,-0.696161866188049,-0.14782503247261,-0.32710871100425704,-0.542432367801666
10.476675033569302,0.261864542961121,-0.319740921258926,0.604280650615692,-0.48867779970169106,-0.968651056289673
9.83121109008789,-0.27696922421455394,0.28310084342956504,1.2151279449462902,-0.617261171340942,-1.53032505512238
9.29701328277588,-0.20548364520072895,-0.207726910710335,1.42770278453827,-0.709346354007721,-1.98265743255615
9.24676418304443,-0.6731309294700619,0.100349001586437,1.25315320491791,-0.6061131954193121,-2.2311196327209504
9.74103164672852,-1.1093723773956299,-0.266051977872849,0.8794673681259159,-0.6038225293159479,-2.42399454116821
9.27054309844971,-1.2759727239608798,0.0858425125479698,0.539530813694,-0.389262408018112,-2.17828130722046
10.417303085327099,-1.72417831420898,-0.0776171833276749,0.34650310873985307,-0.366966485977173,-1.91790771484375
10.9962167739868,-1.8841983079910298,-0.632752060890198,0.24785128235817,-0.316113442182541,-1.49627041816711
10.6138134002686,-2.15428805351257,-0.629760980606079,0.11071606725454301,-0.113312169909477,-0.878398358821869
9.81595706939697,-1.86655116081238,-0.8126623630523678,-0.04703523963689799,-0.14034216105938,-0.10888352245092402
9.175577163696289,-1.3607683181762702,-0.0942173898220062,0.16431790590286302,0.15546062588691698,0.7305732965469359
9.75583744049072,-1.2064312696456898,-0.413808763027191,0.6155813336372379,0.49295374751091,0.895654797554016
10.292576789856,-1.03310120105743,-1.07961165904999,0.9999569654464721,0.545028448104858,0.8373188972473141
9.81356430053711,-0.8727820515632629,-1.4766706228256201,1.3339376449584999,0.5766398310661321,0.8211314082145691
9.16495895385742,-0.7357929348945621,-1.5424733161926298,1.42785549163818,0.527313888072968,0.789978206157684
8.33734226226807,-0.345314204692841,-1.3335499763488798,1.2983558177948,0.520594596862793,0.838387846946716
8.61849880218506,-0.288484692573547,-1.3670494556427,1.14900374412537,0.525481343269348,0.861600041389465
8.91610622406006,-0.117846518754959,-1.65658104419708,1.05554401874542,0.498451352119446,0.9761339426040649
8.86884784698486,0.377617329359055,-2.18868494033813,0.9336800575256351,0.6991146802902221,1.14396417140961
9.68330478668213,0.280408889055252,-2.32522535324097,0.612527072429657,0.421026468276978,1.07386946678162
11.698060989379899,0.143569365143776,-2.71854567527771,0.35551309585571295,-0.062000997364521,1.02103114128113
14.420196533203098,-0.0830010324716568,-2.4077777862548797,0.238993987441063,-0.35872006416320795,0.885881245136261
13.801053047180199,0.607477843761444,-1.7813068628311202,0.336118698120117,-0.183865025639534,0.6565080881118771
10.8556385040283,0.928564727306366,-1.36615216732025,0.470352381467819,0.597866773605347,0.343906998634338
10.5388879776001,-0.12756735086441,-0.90882396697998,0.33291175961494396,-0.0224486365914345,-0.25044736266136197
10.7340526580811,0.160169571638107,-0.616002261638641,0.6542174220085141,-0.850910246372223,-0.554191172122955
10.4816102981567,-0.0946660488843918,0.691525757312775,1.33577024936676,-0.9109259843826291,-0.9772028923034671
9.38405227661133,-0.261266320943832,1.0748260021209701,1.80199944972992,-1.05523860454559,-1.35852432250977
8.952446937561039,-0.297009110450745,0.729511797428131,1.90889763832092,-0.8837432861328121,-1.56025660037994
9.63858890533447,-0.442672193050385,0.0183948241174221,1.6082081794738798,-0.785091459751129,-1.6396667957305902
10.1449699401855,-0.436091929674149,-0.622433006763458,0.9683456420898441,-0.749509572982788,-1.61462199687958
10.7612714767456,-0.7284649610519409,-1.0336993932724001,0.11193776130676299,-0.650399625301361,-1.6121786832809402
12.077772140502901,-1.2661023139953602,-1.2266206741333001,-0.797613799571991,-0.671015739440918,-1.59431135654449
12.1079816818237,-1.8442680835723897,-0.753290474414825,-1.4270919561386102,-0.552969455718994,-1.39639687538147
11.386844635009801,-2.24342083930969,-0.38464623689651506,-1.68517482280731,-0.35978904366493203,-0.9671239256858829
7.89347314834595,-1.4904294013977097,0.96161562204361,-1.362189412117,0.0719272643327713,-0.0244338903576136
8.39880752563477,-0.8585746884346009,1.32891392707825,-0.38590276241302507,0.35230615735054,0.588856756687164
10.470842361450199,-0.786042213439941,-0.28683960437774697,0.6682668924331671,0.593285381793976,0.47997322678565996
9.18320465087891,-0.8205885887145999,-1.14332056045532,1.27926683425903,0.748287916183472,0.529451847076416
7.99068164825439,-0.783649444580078,-1.51734864711761,1.41640210151672,0.710568070411682,0.7443174123764041
7.496713161468509,-0.557527661323547,-1.75977146625519,1.3011046648025502,0.703390598297119,1.07203698158264
8.348708152771,-0.4649553596973421,-1.8838992118835403,1.09570729732513,0.585649788379669,1.37807142734528
9.212666511535641,-0.204287230968475,-1.9289141893386799,0.841289401054382,0.400715798139572,1.45748150348663
9.62737274169922,0.298953264951706,-2.7559335231781,0.585955262184143,0.5519005060195921,1.4956594705581698
10.8749303817749,0.216251343488693,-1.8420248031616202,0.26541313529014604,0.3512371778488161,1.55307912826538
12.1803646087646,0.406779855489731,-2.88708996772766,0.372005969285965,-0.11514470726251598,1.32233154773712
14.300255775451697,0.350548505783081,-2.73933339118958,0.5438067913055421,-0.389720559120178,1.087766289711
15.069847106933599,0.323778808116913,-2.27407884597778,0.642153203487396,-1.03660774230957,0.632226884365082
11.2426767349243,1.55593287944794,-0.911515891551971,1.0179769992828398,-0.433701545000076,0.536934733390808
9.90404224395752,0.511166751384735,-0.0997507944703102,1.36280024051666,-0.0711637064814568,0.151031985878944
9.751200675964359,0.142372950911522,-0.37013974785804704,1.5630054473877,-0.891378879547119,-0.211353152990341
9.80907726287842,0.47766721248626703,0.255583375692368,2.11872363090515,-1.1514470577240001,-0.14171656966209398
9.11710262298584,0.67657059431076,1.2934701442718501,2.57472109794617,-1.1267077922821003,-0.448361873626709
8.38280582427979,0.409920424222946,1.7771195173263503,2.4679756164550803,-1.1644276380538898,-0.8678612709045409
8.97039318084717,0.0248255357146263,2.0403299331665,2.2163066864013703,-0.675597071647644,-1.0986088514328
10.9319095611572,-0.38868412375450107,1.01635146141052,1.80551183223724,0.22830416262149802,-1.15862452983856
11.8773736953735,-1.15139639377594,0.17347964644432098,1.0117157697677601,-0.149504870176315,-1.6937267780304
13.3858985900879,-2.35079860687256,0.24287149310112,0.128430634737015,-0.887866497039795,-2.3765013217926003
12.912717819213901,-4.04970264434814,1.3849956989288301,-0.46592375636100797,-0.6702521443366999,-2.54249906539917
11.005638122558599,-3.97896504402161,0.842273592948914,-0.890157163143158,0.029931515455246003,-1.63401639461517
8.91236686706543,-3.46899461746216,0.16316059231758098,-1.3259966373443601,0.271368891000748,-0.6152759194374079
6.17093992233276,-2.1776182651519798,0.0421734973788261,-1.29973030090332,0.538003742694855,0.314586341381073
8.74651432037354,-2.1996021270752,0.340379029512405,-0.718356370925903,0.127208948135376,0.656202673912048
10.0251789093018,-2.17043972015381,-0.718295454978943,0.22998400032520303,-0.18310146033763897,0.36223241686821
8.9213399887085,-2.02298188209534,-1.05269241333008,0.857934951782227,0.120795048773289,0.5415160655975341
7.8493556976318395,-1.47128677368164,-1.19880414009094,0.9927794933319091,0.30740886926651,1.1042591333389298
8.22114086151123,-0.711715161800385,-1.46874439716339,0.7346965670585629,0.395829021930695,1.4448064565658603
9.15613555908203,-0.0382851622998714,-1.7881863117218,0.46103698015212996,0.39201122522354104,1.5625473260879499
9.87218761444092,0.223280265927315,-1.55144643783569,0.41171106696128795,0.19928891956806197,1.40601766109467
10.7835540771484,0.24361924827098802,-1.65388906002045,0.677124202251434,-0.0791047215461731,1.15068352222443
11.870493888855,0.10229317098856,-2.29875469207764,0.93200021982193,-0.271979749202728,0.906497359275818
13.3159084320068,0.108275227248669,-2.2365415096283,1.0434798002243,-0.605960488319397,0.827239871025085
14.381911277771001,0.575324296951294,-2.3380868434906,1.04378521442413,-0.8237275481224059,0.576028943061829
12.172737121582001,1.32203447818756,-1.6341483592987098,0.976897478103638,-0.171800792217255,0.227998733520508
10.427621841430698,0.311665147542953,-0.5335994362831121,0.91718715429306,-0.100331664085388,-0.395829021930695
10.551749229431199,0.0408275350928307,-0.416201591491699,1.22459602355957,-1.10578620433807,-0.8938222527503971
10.6664552688599,0.484247475862503,-0.655483841896057,2.08405804634094,-1.27850329875946,-1.0644013881683299
9.934999465942381,0.11216355860233301,-0.0254237409681082,2.65856003761292,-1.24948811531067,-1.51169431209564
9.17587661743164,-0.26276183128356895,-0.339182615280151,2.54081916809082,-1.5784293413162198,-1.9570019245147698
9.33275604248047,-0.425623327493668,-0.41470608115196206,2.14926600456238,-1.64149928092957,-2.01518511772156
10.0688486099243,-0.8032406568527221,-0.6783652305603031,1.7552696466445903,-1.3828054666519198,-1.8806459903716999
11.245668411254899,-0.961765170097351,-1.08379912376404,1.13602316379547,-1.1882506608963002,-1.67524862289429
11.9668054580688,-1.3129118680954,-1.3301103115081798,0.247698560357094,-0.9003888368606571,-1.58881366252899
12.619447708129899,-1.5729818344116202,-0.9224331378936771,-0.684301614761353,-0.7157602906227108,-1.55521714687347
12.4794673919678,-2.12781763076782,-1.08589279651642,-1.21726584434509,-0.41048935055732705,-1.5002409219741801
8.99013423919678,-1.8471095561981201,-0.304187566041946,-1.51597023010254,0.311837524175644,-0.8063184022903441
6.9704418182373,-2.21186542510986,0.21804596483707397,-1.44709718227386,1.0416473150253298,-0.132401138544083
7.607531070709231,-1.84381937980652,-0.692572593688965,-1.08822441101074,1.33195245265961,0.5625903010368349
8.56765079498291,-0.7175477147102359,-1.3353445529937702,-0.567477107048035,1.41090440750122,1.5512466430664098
9.02602577209473,-0.6390331983566279,-1.07781708240509,0.13255386054515803,1.3554700613021897,1.90614891052246
8.80947589874268,-0.35832518339157104,-1.3187444210052501,0.9011524319648739,1.02301645278931,2.0234315395355202
9.73280620574951,0.0982552766799927,-1.99845552444458,1.2400199174881001,0.8510629534721371,1.9687607288360602
10.0253286361694,0.299701035022736,-2.3910279273986803,1.17725539207458,0.512348115444183,1.6682238578796398
10.0612211227417,0.870389223098755,-2.64242386817932,1.0117157697677601,0.291068732738495,1.6072918176651
10.350902557373,1.2804591655731201,-2.6333012580871604,0.839609563350677,0.40147936344146706,1.3614258766174299
11.873784065246598,0.912712275981903,-2.6020450592041002,0.6620057225227359,-0.133011996746063,0.793490588665009
13.789687156677198,0.811017334461212,-2.58843588829041,0.606876730918884,-0.581831991672516,0.357498347759247
14.9222402572632,0.6590731143951422,-2.24371981620789,0.51005744934082,-0.7317950129508969,-0.0936123430728912
13.0274238586426,0.860518872737885,-1.5921243429183998,0.295802772045135,-0.328941255807877,-0.342074453830719
10.133753776550302,0.6086742877960211,-0.396012157201767,0.151337414979935,-0.0949867516756058,-0.6175665855407709
10.618748664856,-0.0471086949110031,-0.0408275350928307,0.34528142213821394,-0.658646047115326,-0.89428037405014
10.3902339935303,0.248404905200005,0.394367069005966,1.14640760421753,-0.8371661901474,-0.839762270450592
9.987791061401369,0.19591236114501998,1.1388339996337902,2.0275547504425,-0.936276137828827,-1.1216683387756299
9.5516996383667,-0.0327517613768578,0.551096975803375,2.42262029647827,-0.9553651213645941,-1.59828186035156
9.31271648406982,-0.29551360011100797,-0.0996012389659882,2.18713855743408,-0.848314106464386,-1.90263652801514
9.74387264251709,-0.522383093833923,-0.450299322605133,1.5327684879302998,-0.8533536195755,-1.92691767215729
10.3800649642944,-0.557378113269806,-0.812961518764496,0.735460102558136,-0.700489103794098,-1.8591135740280198
10.861769676208501,-0.734746098518372,-0.7514958381652829,-0.0946813225746155,-0.5653391480445861,-1.77527487277985
11.4704437255859,-1.06405830383301,-0.535094976425171,-0.689493834972382,-0.494022727012634,-1.70029330253601
10.862816810607901,-1.1371889114379898,-0.239282265305519,-0.892295122146606,-0.235634326934814,-1.39227366447449
10.981710433960002,-1.37751805782318,-0.540777921676636,-0.932763755321503,0.0656660795211792,-0.765697062015533
7.67587614059448,-0.532702147960663,0.6489036083221441,-0.7713474035263058,0.6610894203186041,0.255792289972305
8.01864814758301,-1.13300156593323,0.35563325881958,-0.302369385957718,1.1367866992950402,0.651926755905151
8.39880752563477,-1.0776674747466999,-0.26276183128356895,0.371395140886307,1.1381611824035602,1.08547556400299
9.61436176300049,-0.77033931016922,-0.5714359283447271,1.2032164335250901,0.9074136018753051,1.74549603462219
9.78006458282471,-0.5467599630355829,-1.11251294612885,1.9982341527938798,0.911842226982117,1.71800792217255
8.82742214202881,-0.442971289157867,-1.5335001945495599,2.33572721481323,0.800973474979401,1.52604913711548
9.5928258895874,-0.40154555439948997,-2.12213468551636,2.13277316093445,0.387735307216644,1.518718957901
9.995866775512699,0.14700904488563502,-2.41420841217041,1.7789399623870803,0.341463625431061,1.50497496128082
10.0040922164917,0.701844811439514,-2.5944180488586404,1.4561071395874,0.656966209411621,1.55338454246521
11.6732358932495,1.02158570289612,-2.86525559425354,1.0280559062957801,0.36864632368087796,1.2798776626586899
13.5169057846069,1.13374924659729,-3.00957274436951,0.6659762263298029,-0.261595338582993,0.716218411922455
15.417703628539998,0.7700402140617371,-2.47447776794434,0.42698222398757896,-0.7615737915039059,0.104454882442951
13.200604438781701,1.25114715099335,-1.27806639671326,0.24861483275890398,-0.359483599662781,-0.107661828398705
11.124382019042999,0.610767960548401,0.0940678417682648,0.271979749202728,0.0113006746396422,-0.405144453048706
11.0617198944092,-0.24481566250324202,0.18185451626777602,0.45263782143592796,-0.721716046333313,-1.04958832263947
9.95489025115967,0.18678972125053397,0.5834000706672671,1.16839814186096,-1.0254598855972301,-0.8594620823860172
10.0761756896973,0.27652058005332897,0.8896813988685609,1.8924047946929898,-1.0903623104095501,-1.1259442567825302
9.417402267456051,0.12592229247093198,-0.137437745928764,1.71327388286591,-1.0517262220382702,-1.8429261445999099
8.93465042114258,-0.0864407196640968,-0.602243542671204,0.903748512268066,-0.862974464893341,-1.9687607288360602
9.62168979644775,-0.342771857976913,-0.393768876791,0.125987246632576,-0.679567575454712,-1.73740231990814
10.5194463729858,-0.520887553691864,-0.0589232593774796,-0.26800924539566,-0.35551309585571295,-1.64638602733612
11.5921792984009,-1.3212867975235,-0.250199526548386,-0.338562101125717,-0.198525354266167,-1.76183617115021
11.6739835739136,-1.5810575485229499,-0.562462866306305,-0.26770380139350897,-0.16951011121273,-1.6783028841018701
11.503345489502001,-2.17268300056458,-0.558425009250641,-0.133317410945892,-0.0644443854689598,-1.38830316066742
9.62393283843994,-1.92233383655548,-0.47512483596801797,0.0215323660522699,0.00931542087346315,-0.6905628442764279
6.774230480194089,-1.65598285198212,0.16301104426384,0.38086327910423295,0.49646610021591203,0.39903596043586703
6.8648586273193395,-1.41415822505951,0.29835507273674,0.886950194835663,0.782953500747681,1.2313153743743899
9.68853855133057,-1.10518491268158,-1.0528420209884601,1.36356377601624,0.8918370008468629,1.51261055469513
11.190034866333,-0.6620641350746149,-2.29082846641541,1.4148749113082901,0.902374088764191,1.5338374376297
10.1875915527344,-0.34606197476387,-2.14411854743958,1.11128389835358,0.981173396110535,1.3786822557449299
8.84536838531494,-0.0990030393004417,-1.74900376796722,0.6522321701049799,0.9353598356246949,1.23925638198853
8.525327682495119,0.25932216644287104,-1.8318552970886202,0.17088451981544503,0.904664814472198,1.35806620121002
9.269346237182619,0.926321446895599,-2.0540885925293,-0.229525864124298,0.8898517489433292,1.51810812950134
9.6729850769043,1.41909337043762,-1.93803679943085,-0.34070006012916604,0.8536590337753299,1.5488032102584801
10.5044918060303,1.78100776672363,-2.14142680168152,-0.0673459097743034,0.608709275722504,1.3418787717819198
12.641132354736301,1.25249314308167,-2.9389843940734903,0.17897824943065602,0.0430647321045399,0.673153698444366
13.126127243042,1.31081819534302,-3.1013972759246804,0.309241414070129,-0.517234921455383,0.297635316848755
14.762070655822802,0.6957131624221801,-2.7355945110321005,0.223417386412621,-0.725686550140381,0.0745233669877052
13.1256790161133,1.4721841812133798,-2.20737886428833,0.0555871017277241,-0.45462307333946206,-0.116366401314735
10.9541921615601,0.965055286884308,-0.873828947544098,0.0349710062146187,0.027640838176012,-0.507614076137543
11.514711380004899,-0.0453140772879124,-0.545862674713135,0.20616094768047302,-0.621995210647583,-1.2062705755233798
11.0137138366699,-0.0683449953794479,-0.0544367134571075,0.915812730789185,-0.7968502640724179,-1.24689197540283
10.512716293335,-0.390179634094238,1.14122688770294,1.5459016561508199,-0.7708892226219181,-1.52574372291565
9.31406211853027,-0.36161532998085,0.16465610265731798,1.7169389724731399,-0.43919917941093395,-1.9609724283218402
8.51381206512451,-0.449102908372879,-0.428614348173141,1.37303197383881,-0.0893364101648331,-1.9426469802856399
8.99118041992188,-0.970738232135773,-0.880708277225494,0.8423583507537841,-0.157598599791527,-1.92432153224945
9.061320304870609,-1.3196417093277,-1.6066308021545401,0.33703497052192705,-0.11117420345544803,-1.76000368595123
9.56216812133789,-1.60363984107971,-1.70039963722229,-0.21379654109478,-0.228609591722488,-1.3288981914520301
10.9678020477295,-2.0150556564331104,-1.8632611036300701,-0.7044596076011659,-0.50853031873703,-1.1166287660598797
11.416605949401902,-2.17058920860291,-1.6163517236709601,-1.0520316362381,-0.552205920219421,-0.890004456043243
8.96770095825195,-2.30025029182434,-1.12522482872009,-1.3602041006088301,-0.30618718266487105,-0.305881768465042
6.38330316543579,-1.69845545291901,-0.527019202709198,-1.4400724172592199,0.11743538826703999,0.980409860610962
9.041280746459961,-1.00797653198242,-0.7826025485992428,-1.18473827838898,0.27014720439910894,1.81131482124329
11.502448081970199,-0.7063313126564029,-1.8010476827621498,-0.975217640399933,0.0503949001431465,1.74213635921478
10.9043922424316,-0.200099796056747,-1.39262282848358,-0.932763755321503,-0.16385978460311904,1.68822908401489
9.5862455368042,-0.149102762341499,-0.748953461647034,-1.13052558898926,-0.0781884491443634,1.6375287771225
8.65454006195068,0.26545375585556,-0.64695942401886,-1.6030158996581998,0.281906008720398,1.87133061885834
9.71904754638672,0.260369002819061,-0.58369916677475,-2.2355482578277597,0.6015318632125849,1.97654902935028
9.95997428894043,0.31630125641822804,-0.6990033388137821,-2.45453691482544,0.46348035335540794,1.99624884128571
10.471290588378901,0.883400201797485,-0.631854712963104,-2.07794976234436,0.247240424156189,2.13017702102661
11.9549903869629,1.00812613964081,-0.836889743804932,-1.5289506912231399,0.103538610041142,1.9560856819152799
13.9227876663208,1.51525497436523,-0.915852844715118,-0.930931210517883,-0.444085955619812,1.56071472167969
15.852898597717301,1.9456639289856001,-1.41909337043762,-0.330010235309601,-0.470657825469971,0.860531091690063
13.8916816711426,2.43050956726074,-1.70099782943726,-0.0510057471692562,0.243269920349121,0.0945286154747009
10.8065853118896,1.8620647192001298,-2.10732889175415,-0.37368580698966997,0.6499415040016171,-0.6705575585365301
10.7805633544922,0.8056334853172299,-1.74436771869659,-0.5891621708869929,0.0710109919309616,-1.1042591333389298
11.3811616897583,0.661465883255005,-1.5246766805648797,-0.0760504826903343,-0.441795289516449,-1.48466432094574
10.6091775894165,0.20548364520072895,-0.935593664646149,0.70461231470108,-0.151031985878944,-1.9379129409790001
9.14731216430664,-0.19606190919876101,-0.8612666130065921,0.982700526714325,-0.0113006746396422,-2.15995597839355
8.843573570251461,-0.709621489048004,-1.14990079402924,0.74233216047287,-0.0424538850784302,-2.2344791889190696
9.5911808013916,-1.0069296360015898,-1.2880862951278702,0.45950984954834,-0.167677566409111,-2.2396714687347403
9.93036365509033,-1.35553407669067,-1.28674042224884,0.40468630194664,-0.200816035270691,-2.07840776443481
9.945169448852539,-1.43479633331299,-1.16156589984894,0.4685198366642,-0.30466008186340304,-1.80001413822174
10.578070640563999,-1.7385351657867398,-1.4039887189865101,0.504254400730133,-0.511431872844696,-1.50665473937988
9.412766456604,-1.74945247173309,-2.01565408706665,0.41552883386611894,-0.328635811805725,-0.87473326921463
8.911619186401369,-1.8366409540176398,-2.2571794986724902,-0.0226013492792845,-0.101095221936703,0.19898349046707198
8.6983585357666,-1.07377910614014,-1.7798113822937,-0.75225841999054,-0.145839780569077,1.06348502635956
9.44327449798584,-0.8095217943191529,-0.858126044273376,-1.1201411485672,0.216392636299133,1.3634110689163201
10.953594207763699,-0.875623524188995,-1.01051890850067,-1.08822441101074,0.31687700748443604,1.1526688337326
10.109227180481,-0.5271687507629389,-1.2343974113464398,-0.8089144825935359,0.49051034450531,1.27529633045197
8.58634471893311,-0.14880365133285503,-0.73564338684082,-0.513264417648315,0.5734328627586359,1.4542746543884297
7.2306613922119105,0.419790834188461,-0.9520443081855771,-0.441642582416534,0.651926755905151,1.5622419118881201
7.03564643859863,0.6954140663146969,-1.75663089752197,-0.551595091819763,0.730267882347107,1.6350853443145799
8.65199756622314,0.7368398308753971,-3.2258241176605202,-0.993543088436127,0.664143681526184,1.7445797920227097
10.358379364013699,0.315403938293457,-1.22123682498932,-1.2658282518386799,-0.40621343255043,1.63615441322327
12.0720891952515,0.7366902828216549,-0.608225584030151,-0.644291162490845,-0.676513314247131,1.4454172849655198
13.947913169860803,0.9276674389839169,-0.6936194896698001,0.176840275526047,-0.326803296804428,1.10441184043884
14.924633026122999,0.970289587974548,-1.40054905414581,0.47111594676971397,-0.10491301864385601,0.6285618543624879
14.3273248672485,1.2550355195999099,-2.16744875907898,0.23242738842964197,0.11758809536695501,-0.0349710062146187
11.154292106628402,1.11789679527283,-1.7901304960250901,-0.18829366564750696,0.543654084205627,-0.472184926271439
10.994721412658699,0.128763765096664,-1.3187444210052501,-0.396287173032761,-0.0798682793974876,-0.8489249944686891
11.077423095703098,0.0131605248898268,-0.667597532272339,0.0274881273508072,-0.709346354007721,-0.9936957955360409
11.139636039733901,0.262612283229828,0.125024989247322,0.844496309757233,-0.663227438926697,-1.1654965877533001
9.71740245819092,0.20264217257499698,-0.0643071085214615,1.22230541706085,-0.33275905251503,-1.7253381013870202
8.21321392059326,0.149850517511368,-0.742522776126862,0.995986461639404,-0.115297421813011,-2.07978224754333
8.55718231201172,-0.272781789302826,-0.916899740695953,0.5923691391944891,-0.22998400032520303,-2.2864012718200697
9.40872859954834,-1.03474628925323,-1.20239341259003,0.414459854364395,-0.33291175961494396,-2.47057175636292
8.72438049316406,-1.3746765851974498,-1.43165564537048,0.36910444498062106,-0.155613332986832,-2.0591661930084197
