ax,ay,az,wx,wy,wz
10.8366451263428,-2.45354056358337,-0.42323049902916,-0.970789015293121,-0.435992240905762,1.26292669773102
10.1238832473755,-1.6631612777709999,-0.296859562397003,-0.89428037405014,-0.23746687173843398,2.04313135147095
10.909925460815401,-0.9170492887496949,-0.410518646240234,-0.903748512268066,0.135913521051407,2.4142210483551003
12.257682800292999,-0.410668194293976,-0.9828519225120541,-1.12411165237427,0.264496862888336,2.00709128379822
12.292228698730499,-0.138185501098633,-0.834945559501648,-1.37226831912994,0.3785725831985471,1.5130686759948702
9.55125045776367,0.30329027771949796,-0.586241543292999,-1.58255255222321,0.7168292403221129,0.957044959068298
7.37886667251587,0.107976123690605,-0.820887744426727,-1.8145217895507801,0.939483106136322,0.7015580534935001
7.7141609191894505,-0.448056042194366,-0.45702913403511,-1.84017741680145,0.5213581323623661,0.786618530750275
8.65409183502197,-0.660269498825073,-0.00807577650994062,-1.5229948759079,0.0030542362947017,1.02255833148956
9.44581699371338,-0.466749966144562,0.39750766754150396,-1.19573354721069,-0.17699299752712197,1.2864443063736
11.2870941162109,-0.167647138237953,0.6001498103141779,-0.8506048321723941,-0.147214189171791,1.49703395366669
13.5466661453247,0.431306272745132,0.496211588382721,-0.31580802798271196,-0.0561979487538338,1.36280024051666
15.2723398208618,0.79157567024231,-0.18783657252788502,0.13026317954063402,0.0128277922049165,0.673153698444366
15.0753812789917,0.756131947040558,-1.04087781906128,0.0181727055460215,0.197609081864357,-0.37780901789665206
12.056237220764197,0.541824758052826,-1.54785716533661,-0.575876235961914,0.628103673458099,-1.06760823726654
9.89940643310547,-0.118594273924828,-1.0911271572113,-0.9898779988288879,0.795170426368713,-1.30858755111694
9.80623626708984,-0.625124931335449,-0.27502503991127003,-0.636655569076538,0.24128466844558702,-1.34065699577332
10.823334693908699,-0.835842847824097,0.609721124172211,0.344823271036148,-0.31687700748443604,-1.42296874523163
11.0659074783325,-1.07258272171021,0.48993045091629,1.20611786842346,-0.41552883386611894,-1.9168386459350601
9.75568771362305,-1.2801600694656399,-0.422931402921677,1.27697622776031,-0.19531841576099399,-2.17308902740479
9.59103107452393,-1.61874449253082,-1.12477624416351,0.756076216697693,-0.11621369421482099,-2.1767542362213104
9.14282608032227,-2.07816648483276,-1.5966109037399299,0.208757057785988,0.10063708573579801,-2.08558535575867
8.13933563232422,-2.22442770004272,-1.43898367881775,-0.272132456302643,0.034054733812809,-1.6199669837951698
8.30608558654785,-2.13469696044922,-1.1792129278183,-0.5372401475906371,-0.162332653999329,-0.9639169573783871
8.5304126739502,-1.94611251354218,-0.905683398246765,-0.632837772369385,-0.31092125177383395,-0.481042206287384
9.86994457244873,-2.50124740600586,-0.8433204293251041,-0.869388341903687,-0.610236406326294,0.0736070945858955
10.196266174316401,-2.45787739753723,-0.20578274130821203,-1.12243187427521,-0.6719319820404049,0.9907942414283749
9.44491958618164,-1.2351450920105,0.145962178707123,-0.9585720896720891,-0.0508530326187611,1.9568492174148602
10.9870939254761,-0.49022954702377297,-0.591774940490723,-0.754701793193817,0.25838840007782,2.00739669799805
11.2271242141724,-0.314805716276169,-1.00019991397858,-0.7716528177261349,0.0273354146629572,1.2562073469161998
10.293025970459,-0.54795640707016,-0.9975079298019409,-1.04592323303223,-0.140494868159294,0.818229913711548
8.8598747253418,-0.555433928966522,-0.68270218372345,-1.49672853946686,0.106745555996895,0.922532081604004
7.9719877243042,-0.4725824594497679,-0.36999019980430603,-1.8139109611511202,0.38223767280578597,1.1870288848877
8.4958667755127,-0.542722105979919,-0.0752243623137474,-1.7488557100296,0.247545853257179,1.3879976272583001
9.729066848754881,-0.38494533300399797,0.0990030393004417,-1.35043060779572,-0.0949867516756058,1.4866495132446298
10.603494644165,0.0254237409681082,0.229112774133682,-0.9032903909683231,-0.10048437118530301,1.4988664388656598
11.7906332015991,0.30314072966575606,0.297009110450745,-0.5444176197052001,-0.0694838762283325,1.3411151170730602
14.2480621337891,0.27696922421455394,0.103938236832619,-0.179130956530571,-0.165081471204758,0.9449806809425351
15.283705711364698,0.525075018405914,-0.512961328029633,0.0705528557300568,-0.0797155648469925,0.26205345988273604
12.2840032577515,0.942323446273804,-0.9302098155021671,-0.0491732060909271,0.5256340503692629,-0.46378576755523704
10.5756778717041,-0.0191425811499357,-1.22781717777252,-0.47142136096954296,0.542126953601837,-1.09891426563263
10.9873933792114,-0.8243274092674259,-0.87667042016983,-0.404991745948792,-0.0968192890286446,-1.2702568769454998
11.3756284713745,-1.02233350276947,-0.29431718587875394,0.066124215722084,-0.383153945207596,-1.3887612819671598
10.185050010681199,-1.14047908782959,-0.262612283229828,0.27457582950592,-0.184781298041344,-1.7099142074584999
8.41780090332031,-1.27417802810669,-0.9981061220169071,0.0438282899558544,0.215781792998314,-1.7021259069442702
8.77792072296143,-1.3024432659149199,-1.07946217060089,-0.152253672480583,0.19119518995285,-1.5966020822525
9.06715297698975,-1.77921319007874,-1.25862467288971,-0.0461189672350883,0.044897273182869006,-1.73037755489349
8.56585597991943,-2.03150653839111,-1.29870450496674,-0.0216850768774748,-0.12888877093791998,-1.60805535316467
8.99746131896973,-2.44800710678101,-1.60334074497223,-0.285571098327637,-0.20402298867702498,-1.16503846645355
9.361021041870119,-2.64287257194519,-1.6027425527572599,-0.7708892226219181,-0.250905513763428,-0.54625016450882
8.67487907409668,-2.32761812210083,-1.0087243318557702,-1.1366339921951298,-0.176382139325142,0.243117213249207
10.3369941711426,-2.3331515789032005,-0.756730139255524,-1.2029110193252601,-0.455844759941101,0.886950194835663
10.2164554595947,-1.43659090995789,-0.5228317379951479,-1.0728005170822101,-0.397814273834229,1.3275238275528
9.58310508728027,-0.7322037220001221,-0.35368910431861894,-1.03553879261017,0.0855186134576797,1.4270919561386102
10.3718395233154,-0.5518447160720831,-0.40917268395423906,-1.1526688337326,0.32206922769546503,1.1383138895034801
10.565957069397,-0.623330295085907,-0.46002015471458396,-0.9813261032104491,0.41415444016456604,0.896723747253418
9.35324478149414,-0.47482573986053495,-0.771834850311279,-0.957961201667786,0.476155430078506,0.7272136807441708
8.12677383422852,-0.212363004684448,-0.696610510349274,-1.39303719997406,0.44683477282524103,0.7492041587829591
7.669744491577151,-0.35428729653358504,-0.7419245839118961,-1.8322364091873202,0.635739266872406,0.775623321533203
8.29038238525391,-0.721735119819641,-0.25887349247932395,-2.0232789516448997,0.5351021885871889,1.08196318149567
9.76181888580322,-0.650099992752075,0.320638239383698,-1.74946653842926,0.339936494827271,1.4194563627243
11.2700452804565,-0.268145680427551,0.5114658474922179,-1.28415369987488,0.0853659063577652,1.41762375831604
13.270145416259801,0.0554835759103298,0.6149554252624511,-0.645665526390076,-0.0975828468799591,1.28430640697479
16.006637573242198,0.166749835014343,0.0186939276754856,-0.0649025216698647,-0.11178504675626802,0.728893518447876
13.695619583129899,1.29242336750031,-1.0745269060134899,-0.0224486365914345,0.344365149736404,-0.117893524467945
10.1033945083618,1.10413813591003,-1.91545450687408,-0.654675543308258,0.838387846946716,-0.885423123836517
11.0457181930542,-0.269042998552322,-1.41161584854126,-1.2300937175750701,0.28877803683280895,-1.47687590122223
12.023634910583501,-0.632004261016846,-0.653091013431549,-0.959793746471405,-0.284502118825912,-1.5255910158157302
11.9173040390015,-0.856630504131317,0.0925723239779472,-0.410183936357498,-0.15087927877902998,-1.77496945858002
10.348060607910199,-0.717099010944366,-0.5190929770469671,-0.258235692977905,0.16111096739769,-1.9964015483856201
9.676126480102539,-0.843021333217621,-0.985693395137787,-0.302827537059784,0.367271900177002,-2.09428977966309
9.65743255615234,-1.34207439422607,-1.1690434217453,-0.19699823856353801,0.25395974516868597,-2.17797589302063
9.13863849639893,-1.83993101119995,-1.49132668972015,-0.148435890674591,0.0441337153315544,-2.1346056461334197
8.23101043701172,-2.1574287414550803,-1.6426727771759,-0.40392273664474504,-0.0671931952238083,-1.7671811580658001
8.180911064147951,-2.25269293785095,-1.30648112297058,-0.741568565368652,-0.304507344961166,-1.0541696548461899
8.46027278900146,-2.21919345855713,-0.870090126991272,-0.7919634580612179,-0.49371728301048295,-0.264802277088165
9.37552738189697,-2.51889443397522,-0.8998508453369141,-0.814106702804565,-0.825254619121552,0.556481838226318
9.17019367218018,-2.17447757720947,-0.455533623695374,-0.957503080368042,-0.946049690246582,1.6051539182663
9.06057262420654,-1.15244317054749,-0.0372383035719395,-0.9897252917289731,-0.6241331696510309,2.4336154460907005
11.116904258728,-0.6562315821647641,-0.27846473455429105,-0.862363636493683,-0.29534465074539196,2.28823375701904
11.9723386764526,-0.41665023565292403,-0.633499801158905,-0.803264141082764,-0.236550599336624,1.63722336292267
11.0621690750122,-0.5116153955459589,-0.54122656583786,-0.985143899917603,-0.166303172707558,1.15663933753967
9.34935665130615,-0.440129816532135,-0.415603369474411,-1.2624685764312702,0.131484866142273,1.12380623817444
8.59531784057617,-0.288185566663742,-0.32632118463516196,-1.43381118774414,0.24006296694278698,1.16595470905304
8.87273597717285,-0.36221352219581604,-0.115603245794773,-1.30980920791626,0.0771194696426392,1.23925638198853
9.70947647094727,-0.29760730266571006,-0.0979561805725098,-0.985602080821991,-0.0560452342033386,1.3905937671661397
10.3479108810425,0.136540442705154,-0.0151046933606267,-0.727977216243744,-0.0427593067288399,1.49260532855988
11.9437742233276,0.632452964782715,-0.0626620426774025,-0.484401881694794,0.0757450610399246,1.3782241344451898
13.653446197509801,1.02487587928772,-0.367298275232315,-0.191042482852936,0.17057909071445498,0.8707627654075619
14.985650062561,0.794566690921783,-0.9186943173408509,0.0323749035596848,0.105371154844761,0.0380252413451672
13.1913318634033,0.874875783920288,-1.3365410566329998,0.0707055702805519,0.395218163728714,-0.625965714454651
10.0319089889526,0.9203394055366519,-1.46276235580444,-0.0774248912930489,0.701863527297974,-1.06119441986084
11.1474132537842,-0.177667081356049,-0.889382243156433,0.0598630309104919,0.0568087957799435,-1.35272121429443
12.6786699295044,-0.796062171459198,-0.35084763169288596,0.680331110954285,-0.672848284244537,-1.74320530891418
12.4682512283325,-1.05179512500763,0.00149551418144256,1.09066772460938,-0.5841227173805239,-2.2260801792144798
10.993824005127001,-1.2285648584365803,-0.780359268188477,0.782037198543549,-0.0931542068719864,-2.4843158721923797
9.6752290725708,-1.14227366447449,-1.01051890850067,0.16111096739769,0.285876512527466,-2.4800398349762003
9.155537605285641,-1.44018018245697,-0.6106184124946589,0.0261137206107378,0.284960240125656,-2.45911836624146
8.74995422363281,-1.8506987094879197,-0.43534415960311895,0.22524993121624,-0.0401632077991962,-2.2813618183136
8.26974487304688,-1.93100786209106,-0.6954140663146969,0.290915995836258,-0.17409147322177898,-1.8791189193725601
7.93235683441162,-2.22846555709839,-1.1077272891998302,-0.0433701537549496,-0.175313159823418,-1.22459602355957
7.64447021484375,-2.16460728645325,-0.9376873970031742,-0.5809157490730289,-0.21058958768844602,-0.18814095854759197
8.81321430206299,-2.40807700157166,-0.649053156375885,-0.884812235832214,-0.26587125658989,0.775470614433289
8.389086723327638,-2.00518536567688,0.0402293317019939,-0.926960706710815,-0.35352784395217896,1.7456487417221103
8.651699066162111,-1.27073836326599,0.0122632160782814,-0.6739172339439389,-0.0458135455846786,2.42124581336975
11.0573825836182,-1.38753807544708,-0.745812892913818,-0.51998370885849,0.0765086188912392,2.4833996295929
12.6306638717651,-1.25548410415649,-0.741625487804413,-0.5079194903373719,-0.226624339818954,2.39238333702087
11.89905834198,-0.6957131624221801,-0.40872400999069197,-0.440420866012573,0.044897273182869006,2.10024547576904
9.807881355285641,-0.1353440284729,-0.708724141120911,-0.627950966358185,0.4669927358627321,1.68670201301575
8.69551753997803,0.0931705310940742,-1.04656076431274,-0.9127585291862491,0.602753520011902,1.6210359334945699
9.279664993286131,0.0118145616725087,-0.9216853976249691,-0.934290885925293,0.343906998634338,1.60942983627319
10.238289833068801,0.15329019725322698,-0.5693422555923461,-0.7672241330146791,-0.12369657307863198,1.5320049524307298
11.6298656463623,0.510568559169769,0.0137587301433086,-0.511126458644867,-0.29274854063987704,1.42037260532379
13.384403228759801,0.871585667133331,0.17168502509594,-0.17897824943065602,-0.193485870957375,1.0143119096756
14.516956329345698,1.08589279651642,-0.34785658121109003,0.0855186134576797,0.0942231863737106,0.267856508493423
15.173336982727099,0.284297227859497,-1.2306586503982502,-0.00580304907634854,0.134844526648521,-0.715607583522797
12.5265760421753,0.325573444366455,-1.7283656597137498,-0.370936989784241,0.424844264984131,-1.22978830337524
11.096415519714402,-0.13474582135677302,-1.29855489730835,-0.748135209083557,0.35184800624847395,-1.60347402095795
12.087642669677699,-0.940977513790131,-0.248404905200005,-0.475697308778763,-0.318556845188141,-1.81971395015717
12.4713916778564,-1.27687001228333,0.512064039707184,0.37368580698966997,-0.49631339311599704,-2.1234576702117898
11.3359975814819,-1.36046922206879,0.31630125641822804,0.8945857882499691,-0.279157191514969,-2.5270750522613503
9.218499183654789,-1.43748819828033,-0.48484569787979104,0.737292647361755,0.10567657649517098,-2.6203820705413796
8.77373313903809,-1.46051907539368,-0.6197410821914671,0.388651579618454,0.200357899069786,-2.5122621059417702
8.71675395965576,-1.8222839832305902,-0.50234317779541,0.299162447452545,0.12949961423873899,-2.4120831489562997
7.97183799743652,-1.87447738647461,-0.343519598245621,0.31504446268081704,-0.0319167710840702,-1.9796032905578602
8.08056163787842,-1.95388925075531,-0.47377887368202204,0.23746687173843398,-0.0765086188912392,-1.40678119659424
7.98260593414307,-2.10224413871765,-0.694815874099731,-0.0265718549489975,-0.0870457366108894,-0.637419104576111
8.0258264541626,-2.13035988807678,-0.6913762092590329,-0.36559209227562,-0.20142687857151,0.404839009046555
8.95229721069336,-2.2968106269836404,-1.09935247898102,-0.6171084642410279,-0.6713211536407471,1.3460019826889
8.304440498352049,-1.8180965185165399,-1.43599271774292,-0.716523826122284,-0.746149897575378,2.3291606903076203
10.3612213134766,-1.0082756280899001,-1.06585288047791,-0.586413383483887,-0.480889499187469,3.18190336227417
13.520494461059599,-0.663260519504547,-1.36749815940857,-0.325887024402618,-0.20020519196987197,2.91694831848145
13.1671047210693,-0.11051849275827401,-0.8913264274597171,-0.149199441075325,-0.00946813262999058,2.3441264629364
11.642128944397,0.46061834692955,-0.7686942815780641,-0.0986518338322639,0.31122666597366305,1.7022786140441901
9.28086185455322,0.824925601482391,-0.9828519225120541,-0.19012621045112602,0.597714066505432,1.2919420003891002
8.81216716766357,0.77557361125946,-1.2946666479110702,-0.184170454740524,0.548540830612183,1.18794524669647
9.4390869140625,0.670887649059296,-1.5506986379623402,-0.0823116675019264,0.211505860090256,1.10807693004608
10.040732383728,0.8464609980583191,-1.44287204742432,-0.0302369389683008,-0.0926960706710815,1.04653406143188
11.0929765701294,0.902692317962646,-1.03833544254303,0.0441337153315544,-0.219294160604477,0.854422628879547
12.9782209396362,0.8195417523384091,-0.8831011056900021,0.24464432895183605,-0.326803296804428,0.502879977226257
14.9019012451172,0.458225548267365,-0.9451649188995358,0.45263782143592796,-0.366813778877258,-0.10277505218982701
14.3709936141968,0.5531907081604001,-1.43045926094055,0.47355934977531394,-0.12308572232723199,-0.7006418108940121
11.599507331848098,0.6402295827865601,-0.970289587974548,0.356887519359589,0.105829291045666,-1.21268451213837
11.4237842559814,-0.5036891698837279,-0.328863561153412,0.49432814121246293,-0.269689053297043,-1.6561596393585198
11.331809997558599,-1.07886385917664,0.133848518133163,1.03966200351715,-0.660173177719116,-1.77160978317261
10.5572834014893,-0.968794047832489,0.39481574296951294,1.48756575584412,-0.709804534912109,-1.7540478706359899
9.30493927001953,-0.799800992012024,-0.0213858522474766,1.3967022895813,-0.4848600029945371,-1.8270441293716397
8.77238655090332,-0.826720237731934,-0.35249269008636497,0.951089203357697,-0.302827537059784,-1.87362122535706
9.12772083282471,-1.14287185668945,-0.231505587697029,0.558008968830109,-0.288930743932724,-1.86201512813568
9.59432125091553,-1.5505490303039597,-0.0722333341836929,0.337798535823822,-0.336576849222183,-1.80627536773682
9.67373371124268,-1.72926306724548,-0.121884405612946,0.10460758954286599,-0.259762793779373,-1.5781239271163898
10.1057872772217,-1.9734804630279499,-0.21475583314895605,-0.17668756842613198,-0.215781792998314,-1.24261605739594
9.81326484680176,-2.0273189544677703,-0.165852516889572,-0.383153945207596,-0.0676513314247131,-0.7383615970611569
9.3112211227417,-2.18180561065674,-0.257377982139587,-0.547930002212524,0.107050985097885,-0.117282673716545
7.62727165222168,-1.34551405906677,0.470189660787582,-0.468367129564285,0.373227685689926,0.872289896011353
8.85688304901123,-0.925723254680634,0.28639096021652194,-0.0536018460988998,0.597866773605347,1.3884558677673302
10.3565855026245,-0.911814987659454,-0.48499524593353294,0.41568157076835605,0.61817741394043,1.44556999206543
10.1844511032104,-0.7537391185760501,-0.486042112112045,0.5877877473831179,0.429883748292923,1.3667707443237298
9.45583724975586,-0.507727026939392,-0.640528738498688,0.573127448558807,0.46241137385368297,1.3666180372238201
8.555238723754881,-0.30239295959472695,-0.719192743301392,0.549762547016144,0.650399625301361,1.49932456016541
8.765806198120119,-0.197108760476112,-1.13524484634399,0.6207735538482672,0.656355381011963,1.64898216724396
9.97343444824219,-0.0859920606017113,-2.2009482383727996,0.647498071193695,0.49387001991271995,1.7230473756790199
10.9440231323242,0.5108676552772521,-2.8592734336852996,0.132401138544083,0.666892468929291,1.77542757987976
11.4276723861694,0.689880669116974,-2.0605194568634,-0.0711637064814568,0.0971247106790543,1.32401144504547
12.768251419067399,0.454187661409378,-2.23100805282593,0.132401138544083,0.064597100019455,0.825865507125854
13.4659090042114,0.339631259441376,-2.09431791305542,0.115450128912926,-0.187224686145782,0.417208671569824
14.2782716751099,-0.11709875613451,-1.3918750286102302,-0.132401138544083,-0.408198684453964,-0.0357345640659332
11.070543289184599,0.5193920731544489,-0.8621639013290409,-0.335202425718307,0.23731416463851898,-0.16844113171100597
10.966904640197802,-0.22716860473156,0.00523429969325662,-0.46118968725204496,-0.17867282032966603,-0.48791423439979603
11.6436243057251,-0.45224347710609397,0.8231309652328491,0.110563352704048,-0.7207997441291809,-0.7360709309577941
10.7973127365112,-0.239132717251778,1.3619647026062,0.9417737722396851,-0.7319477200508121,-0.977355599403381
9.85499000549316,0.0852443054318428,-0.36894333362579296,1.2062705755233798,-0.716218411922455,-1.4742798805236799
9.66012382507324,0.0077766734175384,-2.2269701957702597,0.6545228362083441,-0.5743491649627691,-1.93501138687134
10.0712413787842,-0.8708378672599789,-2.02372980117798,-0.29488649964332597,-0.4330907166004179,-2.21218323707581
9.87861919403076,-1.73778748512268,-1.00184488296509,-0.8419002294540409,-0.18936264514923104,-2.19905018806458
8.71750164031982,-2.2661526203155495,-0.144915327429771,-0.76035213470459,0.126903519034386,-1.9110356569290199
9.23958587646484,-2.32776784896851,0.234047964215279,-0.275186687707901,0.0024433890357613603,-1.37165749073029
10.1898355484009,-2.45054960250854,0.0728315412998199,0.309241414070129,-0.0813953951001167,-0.985602080821991
10.4210414886475,-2.6374888420105003,-0.626919507980347,0.5812211632728579,-0.189668074250221,-0.572516620159149
9.94771194458008,-2.0842981338501,-1.08693969249725,0.259457379579544,-0.0555871017277241,0.13576079905033098
7.95972442626953,-1.4893825054168701,-0.8252246975898739,-0.21715620160102803,0.4185830950737,0.8373188972473141
8.34452056884766,-1.4763715267181399,-0.68330043554306,-0.5372401475906371,0.61481773853302,1.22520685195923
9.66281604766846,-1.34506547451019,-0.771685302257538,-0.4185830950737,0.49570256471633894,1.5229948759079
9.86052322387695,-1.21121692657471,-0.8753244280815121,-0.258082956075668,0.34604495763778703,1.48924565315247
8.81366348266602,-0.7978568077087399,-0.5641079545021059,-0.424844264984131,0.19333316385746,1.5242166519165001
8.678468704223631,-0.627966403961182,-0.37148571014404297,-0.8283088803291321,0.374754786491394,1.53964054584503
9.26755142211914,-0.774676322937012,0.0035892338491976296,-1.2526949644088703,0.5192201733589171,1.5570496320724498
9.93350410461426,-0.8256733417510991,0.25453650951385504,-1.4539692401886002,0.5777087807655329,1.65157830715179
10.8305139541626,-0.7930711507797241,0.163310140371323,-1.5016152858734098,0.5743491649627691,1.7083870172500601
12.5980615615845,-0.997956573963165,0.279362052679062,-1.43915617465973,0.4074351191520689,1.7120521068573
14.1794185638428,-0.872183859348297,0.0474077984690666,-1.1367866992950402,0.28786176443100003,1.6207305192947399
14.728421211242699,-0.18619151413440696,-0.362512618303299,-0.9452861547470089,0.35490226745605497,1.17817163467407
12.7885904312134,0.24810579419136,-1.0523933172225999,-1.1325107812881499,0.731336891651154,0.369562596082687
9.86171913146973,-0.431156724691391,-1.0030413866043102,-1.3902883529663101,0.772416353225708,-0.304201930761337
9.8920783996582,-1.11116707324982,-0.839132964611053,-1.1180032491683998,0.17256435751915,-0.431258171796799
10.6331052780151,-0.8636594414711,0.005383851006627079,-0.43843561410903903,-0.48577627539634705,-0.45737189054489097
9.93395233154297,-0.577268481254578,0.43788653612136796,0.159583851695061,-0.528993725776672,-0.9280297160148621
7.72059202194214,-0.481854647397995,0.211764797568321,0.384070217609406,-0.0922379344701767,-1.11830866336823
7.38544702529907,-1.09202444553375,0.608225584030151,0.529146432876587,-0.16813570261001598,-1.20092570781708
8.074878692626951,-2.0300109386444096,0.22582264244556402,0.870151937007904,-0.22830416262149802,-1.3116418123245202
8.651699066162111,-2.4650559425354,-0.355932354927063,0.9312366247177121,-0.36009445786476096,-0.995222926139832
11.870943069458,-2.60339093208313,-0.5548357367515561,0.709957242012024,-0.6995728015899662,-0.779593825340271
13.9100761413574,-3.29431867599487,-1.47248327732086,0.26205345988273604,-0.5599942207336429,-1.21161556243896
12.0667057037354,-3.9050865173339804,-1.5970596075058001,-0.751494824886322,-0.216850772500038,-1.2412415742874099
9.19322490692139,-3.6815071105957,-0.284297227859497,-1.51887166500092,0.0751342102885246,-0.5592306852340699
8.68564701080322,-2.62776780128479,0.751944541931152,-1.2940798997879,0.294581085443497,0.2962609231472019
9.141180992126461,-1.70069873332977,0.7230811119079591,-0.520747303962708,0.668419599533081,0.514638841152191
9.68270683288574,-1.6769200563430802,-0.0892821922898293,0.114992000162601,0.790283620357513,0.027793550863862006
8.80498886108398,-1.8592232465743999,-0.8555836677551271,0.282974988222122,0.474628329277039,-0.34237989783287
7.59721183776855,-1.82946240901947,-0.7063313126564029,0.153322666883469,-0.00870457384735346,-0.20402298867702498
6.96939516067505,-1.3797613382339498,-0.391226500272751,-0.0282516852021217,-0.05757235363125799,0.154391646385193
7.111767768859861,-0.913609623908997,-0.0743270516395569,-0.20661908388137804,0.158209443092346,0.6378772258758539
8.69626522064209,-0.665952444076538,-0.227617248892784,-0.21211670339107502,0.10216420143842699,0.9164236187934879
9.38928604125977,-0.231804698705673,-0.7776673436164859,-0.0784938707947731,-0.0505476109683514,1.00942504405975
10.973933219909698,-0.0978066250681877,-0.974776148796082,0.0142021989449859,-0.17958909273147602,1.03889846801758
12.2644128799438,0.0234795715659857,-1.0049854516983001,0.0389415137469769,-0.15316994488239302,0.96147358417511
14.084004402160598,-0.34950166940689104,-0.573081016540527,0.102316915988922,-0.251058220863342,0.698503851890564
13.556237220764197,0.0782153904438019,-0.8041379451751709,0.247698560357094,-0.0963611528277397,0.312601089477539
10.970343589782699,0.277268320322037,-0.192771777510643,0.36314868927002003,0.258082956075668,0.0774248912930489
11.867652893066401,-0.6918248534202579,-0.0846460983157158,0.6821636557579039,-0.448361873626709,-0.507766783237457
11.1958675384521,-1.14616203308105,-0.22956141829490698,1.21879303455353,-0.6132906675338751,-0.897181928157806
9.56904697418213,-1.0935199260711699,-0.0394815728068352,1.2870551347732502,-0.668419599533081,-1.11189472675323
7.861469268798831,-0.890429139137268,-0.40393838286399797,0.894433081150055,-0.36834090948104903,-1.1377030611038201
8.107481002807619,-0.9327521920204159,-0.251994132995605,0.6594096422195429,-0.102316915988922,-1.13587045669556
8.90294551849365,-1.5939190387725801,-0.198454722762108,0.811663269996643,-0.194554850459099,-1.33256328105927
9.65982532501221,-1.78743851184845,-0.8172984719276429,0.9909469485282901,-0.49952033162117,-1.3870813846588101
9.84018421173096,-2.2564318180084197,-1.39980125427246,0.5761816501617429,-0.528077483177185,-1.51383221149445
10.101449966430698,-2.2470099925994904,-1.1506485939025901,-0.24907296895980802,-0.755312621593475,-1.1357177495956399
11.003395080566401,-2.2663021087646498,-0.497408002614975,-0.682621836662292,-0.45523393154144304,-0.530062735080719
10.3983097076416,-2.3373391628265403,-0.580409049987793,-0.903748512268066,-0.0216850768774748,0.045202698558569
8.015955924987791,-1.26699960231781,-0.0406779833137989,-1.1166287660598797,0.36009445786476096,0.9761339426040649
8.03225708007812,-0.466151773929596,-0.133848518133163,-1.10227382183075,0.828461587429047,1.3250803947448702
9.57458114624023,-0.682851791381836,-0.448056042194366,-0.9729269742965699,0.767987728118896,1.02881944179535
10.497312545776401,-1.0015457868575999,-0.45463630557060203,-0.672695517539978,0.24510246515274,0.936886966228485
9.945169448852539,-0.778415143489838,-0.365354120731354,-0.390942245721817,0.251210927963257,0.978577315807343
8.31012344360352,-0.0720837786793709,-0.655184745788574,-0.431105464696884,0.47890424728393605,1.2053543329238898
7.98365259170532,1.31575334072113,-4.71625328063965,-1.30049383640289,1.51917707920074,1.4674078226089498
8.915059089660641,0.204586341977119,-1.10024976730347,-2.63443160057068,0.784022450447083,1.15343236923218
10.0431251525879,0.357128769159317,1.2919746637344398,-1.86690199375153,-0.36223241686821,0.579388618469238
11.6132659912109,0.11754741519689599,0.7432705163955692,-0.212269425392151,-0.23135839402675604,0.286487370729446
12.808929443359402,-0.37013974785804704,-0.19202402234077498,0.701099932193756,-0.371395140886307,0.0606265887618065
14.1758289337158,-0.717697262763977,-1.68409848213196,0.7137750387191769,-0.39399647712707503,-0.0473406612873077
13.0034952163696,-0.1266700476408,-3.0055348873138397,0.10369132459163699,0.103080473840237,-0.083075225353241
9.94501972198486,0.391974270343781,-2.36665105819702,-0.7114843726158141,0.553733050823212,-0.266634821891785
9.742227554321289,-0.39975091814994795,-1.2551850080490101,-1.01721334457397,0.229067727923393,-0.63925164937973
10.8157081604004,-1.06346011161804,-0.3349951803684231,-0.517387628555298,-0.46012070775032,-0.980562567710876
11.215309143066401,-1.32936251163483,-0.00912263616919518,0.219905018806458,-0.581373870372772,-1.25987243652344
10.5104732513428,-1.30513525009155,-0.18978074193000802,0.374754786491394,-0.481653064489365,-1.55246829986572
9.17453098297119,-1.32547414302826,-0.8123632669448849,-0.00381779531016946,-0.136371657252312,-1.5946167707443202
8.86196804046631,-1.47816622257233,-0.9252746105194091,-0.5186093449592589,0.0733016729354858,-1.42755007743835
