ax,ay,az,wx,wy,wz
7.672735214233401,-3.4616665840148904,-0.336191594600677,-0.00167983002029359,0.24372805655002602,-1.93546950817108
7.35628461837769,-3.80084919929504,-0.7636095285415649,0.23624517023563396,0.0820062458515167,-1.74687039852142
7.62158870697021,-4.07602405548096,-1.08290183544159,0.20432840287685397,-0.0893364101648331,-1.2365075349807702
8.32133960723877,-4.39501714706421,-1.17472636699677,-0.11209046840667698,-0.204633831977844,-0.677429616451263
9.52702331542969,-4.961816787719731,-0.908973515033722,-0.477224409580231,-0.365744799375534,-0.11697725206613499
9.75090217590332,-4.7898325920105,-0.538385093212128,-0.7473716139793399,-0.623522341251373,0.525481343269348
8.28260612487793,-3.4025938510894798,0.756131947040558,-0.877787530422211,-0.46118968725204496,1.4316732883453402
9.53958606719971,-3.0332016944885294,0.545862674713135,-0.616039454936981,0.0164928752928972,2.0220570564269997
10.6369943618774,-2.91535520553589,-0.859322428703308,-0.209520608186722,0.0265718549489975,1.978839635849
10.042975425720199,-2.4091236591339102,-1.13001048564911,0.0931542068719864,-0.10598199814558,1.88873970508575
9.05698299407959,-1.70010054111481,-1.13330066204071,0.14461809396743802,0.311532109975815,1.8979024887084999
8.84970474243164,-1.1914761066436799,-1.1929715871810902,-0.165081471204758,0.6594096422195429,1.8601826429367099
9.70513916015625,-0.9296116232872009,-1.3763216733932502,-0.434617817401886,0.6365028619766241,1.7335845232009899
10.790882110595698,-0.985842943191528,-1.13763761520386,-0.382848531007767,0.46286952495575,1.4128897190094
11.156236648559599,-0.803539752960205,-1.00408816337585,-0.224486365914345,0.0296260919421911,0.9497147798538209
11.7997560501099,-1.22377920150757,-0.95847499370575,-0.0468825288116932,0.111479625105858,0.54136335849762
12.9169054031372,-1.97407865524292,-1.2915260791778602,0.0216850768774748,0.0109952501952648,0.09132166206836699
14.5425291061401,-2.99760866165161,-1.3507484197616597,0.10598199814558,-0.220821291208267,-0.356123954057693
12.902249336242699,-2.5488047599792503,-1.38275241851807,0.130568608641624,-0.34787750244140603,-0.7705838084220891
10.6153087615967,-2.28335094451904,-0.25064817070961,0.16111096739769,0.273048728704453,-0.9109259843826291
10.7795162200928,-3.48409938812256,0.11081759631633802,0.314891755580902,-0.0332911759614944,-1.27605986595154
11.3560371398926,-3.6131622791290297,0.335742920637131,0.6835380792617801,-1.01721334457397,-1.45015144348145
10.56236743927,-3.1803603172302206,0.482452869415283,1.22291624546051,-1.00102591514587,-1.4900091886520401
8.58604621887207,-2.86241412162781,0.0270688068121672,1.2160441875457801,-0.684148907661438,-1.7790926694870002
7.78265571594238,-2.85433840751648,-0.172731891274452,0.749356865882874,-0.37276953458785994,-1.96601188182831
7.99845838546753,-3.4613676071167006,-0.391974270343781,0.42606595158577004,-0.20112146437168102,-1.9809776544570903
7.30738115310669,-3.8214874267578103,-0.47976094484329207,0.265107721090317,-0.0959030166268349,-1.90920305252075
8.04975414276123,-3.84646248817444,-0.347407937049866,0.0868930220603943,-0.0888782739639282,-1.3805148601532
8.79676342010498,-4.15050029754639,-0.378365069627762,-0.11942064017057401,-0.142480120062828,-1.0167552232742298
8.73604583740234,-4.43778848648071,-0.335294276475906,-0.29809346795082103,-0.0826170891523361,-0.56579726934433
8.73574638366699,-4.447509765625,-0.510568559169769,-0.42957833409309404,-0.0720799788832664,0.19623468816280398
8.16804981231689,-3.31734943389893,-0.0846460983157158,-0.53968358039856,0.0142021989449859,1.19099938869476
8.68041324615479,-2.70897436141968,-0.482004225254059,-0.473253905773163,0.203106716275215,1.78382670879364
10.5311117172241,-3.17153692245483,-1.09501540660858,-0.29351210594177196,0.0229067727923393,1.90294194221497
11.1073331832886,-2.7477080821991002,-1.0966604948043799,-0.196387395262718,-0.203412130475044,2.00968742370605
9.8805627822876,-1.96869480609894,-0.6049354672431949,-0.0574196428060532,0.352611571550369,1.97471642494202
8.88963508605957,-1.3218849897384601,-1.0998010635376,0.0885728523135185,0.591300129890442,1.86415314674377
9.36476039886475,-0.9744769930839542,-2.05782747268677,0.25594499707222,0.5256340503692629,1.77832913398743
10.179067611694302,-0.995862901210785,-2.02313160896301,0.18218518793582897,0.307561606168747,1.52375853061676
10.824232101440401,-0.750449001789093,-1.6438691616058303,-0.0447445623576641,-0.10918894410133399,1.1880979537963898
12.102298736572301,-1.17622184753418,-1.2468101978302,-0.0908635333180428,-0.00931542087346315,0.788909256458282
13.166506767272901,-2.08026027679443,-0.987338423728943,-0.0406213440001011,-0.198525354266167,0.19974705576896698
14.8993587493896,-3.42577433586121,-0.678664326667786,0.106134712696075,-0.467756301164627,-0.2903051674366
12.821192741394,-2.5348963737487797,-0.96116691827774,0.26739838719368,-0.44958359003067,-0.562743008136749
10.4099750518799,-2.0859432220458998,-0.0031405796762555803,0.481347650289536,0.17897824943065602,-0.666587054729462
10.3908319473267,-3.11620283126831,0.15254244208335901,0.8470924496650699,-0.304354637861252,-1.04378521442413
10.6893367767334,-3.2434711456298797,0.26979073882103,1.41854000091553,-1.48451149463654,-1.21482253074646
10.5801639556885,-2.8247270584106405,0.239282265305519,2.07367372512817,-1.4922997951507602,-1.18428015708923
8.95439052581787,-2.41316175460815,-0.620638370513916,2.07886600494385,-1.11891949176788,-1.5202461481094398
8.19287490844727,-2.45563435554504,-1.00124669075012,1.42816090583801,-0.7687512636184691,-1.8139109611511202
8.11839866638184,-3.09062957763672,-0.8786145448684691,0.6639909744262701,-0.529451847076416,-2.00556421279907
8.57797050476074,-3.78170657157898,-0.708873689174652,0.081700824201107,-0.442406117916107,-2.04190969467163
9.241230964660641,-4.48220539093018,-0.6876373887062069,-0.281753301620483,-0.284502118825912,-1.7847429513931299
9.04845905303955,-4.9345984458923295,-0.83150589466095,-0.589925765991211,-0.112243182957172,-1.46420085430145
8.63644504547119,-5.0825047492981,-0.314207524061203,-0.901763260364532,0.11865708231926,-0.832432091236115
8.42258644104004,-4.8486065864563,0.0340977236628532,-1.05814015865326,0.15897299349308,-0.0354291424155235
7.41804933547974,-3.37118792533875,0.505035102367401,-0.811052441596985,0.422553598880768,1.00010967254639
8.8422269821167,-2.86032032966614,-0.25064817070961,-0.27640837430953996,0.8035695552825931,1.7044165134429898
10.556535720825199,-2.9235806465148904,-1.57133674621582,0.154086217284203,0.59175831079483,1.57048833370209
10.2101745605469,-2.53340101242065,-2.24342083930969,0.32451260089874295,0.08582404255867,1.36280024051666
8.522486686706541,-2.1450159549713104,-1.71819615364075,0.184170454740524,0.38758260011672996,1.2896512746810902
7.83185815811157,-1.8426229953765902,-1.3520942926406898,-0.31443363428115806,0.6355865597724909,1.3815838098526
8.36904716491699,-1.8343976736068701,-1.10847508907318,-0.687203168869019,0.576028943061829,1.47458529472351
9.384500503540039,-2.0708384513855003,-1.18579316139221,-0.579388618469238,0.423011720180511,1.5500248670578
10.420742988586401,-1.78429794311523,-1.00169539451599,-0.41110020875930803,0.0410794764757156,1.62974047660828
12.0442724227905,-1.7069798707962,-1.14152598381042,-0.151337414979935,-0.23090025782585102,1.53078317642212
13.7536458969116,-1.91276264190674,-1.3538889884948702,0.0583359114825726,-0.43614494800567605,1.12059926986694
15.446417808532699,-2.3875882625579803,-1.36061882972717,0.0697892978787422,-0.456761032342911,0.6514685750007629
14.075330734252901,-1.7270197868347201,-1.3517951965331998,-0.0456608310341835,-0.36223241686821,-0.0224486365914345
11.276475906372099,-1.1575279235839802,-0.6041877269744871,0.0545181185007095,0.2342599183321,-0.413085460662842
10.979018211364698,-2.56600308418274,-0.137138649821281,0.428356647491455,0.0800209939479828,-1.03935658931732
11.1246814727783,-3.1612179279327406,-0.13788640499114999,0.908024430274963,-1.0928057432174698,-1.48863482475281
10.8136138916016,-2.6856443881988503,-0.206829607486725,1.41227889060974,-1.10807693004608,-1.4251066446304301
9.29821014404297,-2.41106796264648,-0.524028182029724,1.3256912231445301,-0.6187883019447329,-1.71006691455841
8.570492744445799,-2.57751870155334,-0.363110840320587,0.675597071647644,-0.32848310470581105,-2.03580117225647
9.17064189910889,-3.2434711456298797,-0.141026988625526,0.3113794028759,-0.272896021604538,-2.27204632759094
8.59860801696777,-4.10922431945801,-0.26679971814155606,0.328788548707962,-0.286640077829361,-2.50264120101929
7.806434154510501,-4.23738956451416,-0.522383093833923,0.347724795341492,-0.271979749202728,-2.1720201969146697
7.69172859191895,-4.33938407897949,-0.532702147960663,0.218377888202667,-0.281753301620483,-1.58835554122925
8.354091644287111,-4.72597408294678,-0.619441986083984,-0.0775775983929634,-0.293664813041687,-0.8368607163429259
8.7554874420166,-4.86505699157715,-0.499800831079483,-0.413085460662842,-0.0610847249627113,0.0204633828252554
7.86804962158203,-3.36879515647888,-0.008823533542454241,-0.677735030651093,0.215781792998314,1.12151551246643
7.9239816665649405,-2.79945302009583,-0.16495521366596202,-0.66872501373291,0.97766101360321,1.8359013795852699
10.818399429321301,-3.14641213417053,-0.828664362430573,-0.642916738986969,0.736834526062012,1.9570019245147698
11.626575469970698,-3.0515966415405296,-0.938435137271881,-0.37780901789665206,-0.135302662849426,1.73022484779358
9.53450107574463,-2.60144686698914,-0.402293294668198,0.0317640565335751,0.15943112969398499,1.56926655769348
8.4299144744873,-1.8677476644516,-0.258125752210617,0.0516165941953659,0.516013205051422,1.80016684532166
8.879316329956051,-1.25279223918915,-0.641725122928619,0.0981936976313591,0.389109700918198,1.87209415435791
9.7888879776001,-1.2420245409011799,-1.1653046607971203,0.521816253662109,0.152100965380669,1.7523680925369298
10.6512012481689,-1.0066305398941,-1.46066868305206,0.8105943202972409,-0.403006464242935,1.52375853061676
12.0939235687256,-1.02143621444702,-1.5728322267532302,0.8167027831077579,-0.6306998133659361,1.2273448705673202
13.679766654968299,-1.39965164661407,-1.4706885814666701,0.6514685750007629,-0.608861982822418,0.73087877035141
14.5755796432495,-2.44337105751038,-0.9352945685386659,0.479820519685745,-0.530215442180634,0.08047912269830701
13.9248819351196,-2.9730820655822794,-0.6109175086021421,0.427440375089645,-0.46012070775032,-0.558314383029938
11.268549919128402,-2.03838586807251,-0.276819676160812,0.5534276366233829,-0.208298921585083,-0.683232665061951
10.4210414886475,-2.4670002460479705,0.0967597663402557,0.9330691695213321,-0.00610847258940339,-0.855949699878693
10.6319093704224,-3.28370046615601,0.316600352525711,1.19405364990234,-1.0385930538177501,-1.4301460981368999
10.2130155563354,-3.1649565696716295,0.46151566505432107,1.40006196498871,-1.4438902139663703,-1.5559806823730502
9.48365306854248,-2.9902806282043497,0.28250262141227694,1.33103621006012,-1.01247930526733,-1.63722336292267
8.82772064208984,-2.9295625686645494,0.0308075919747353,0.839609563350677,-0.7207997441291809,-1.9047744274139398
8.95887756347656,-3.4852957725524902,0.0578763969242573,0.44622391462326,-0.45767730474471996,-2.05748629570007
8.70867824554443,-4.13988208770752,-0.22298115491867102,0.21165858209133104,-0.373533099889755,-2.1889710426330597
8.26570701599121,-4.4570808410644505,-0.42263230681419395,-0.0442864261567593,-0.239146694540977,-1.97853422164917
8.31311416625977,-4.81615400314331,-0.320339143276215,-0.415376126766205,-0.0659715011715889,-1.50833463668823
8.54207801818848,-5.319693565368651,0.0548853687942028,-0.753938257694244,0.0974301397800446,-0.879009187221527
8.35498905181885,-5.41256475448608,0.11994023621082302,-0.9048175215721129,0.253043472766876,0.00030542362947017003
6.94621467590332,-3.93095898628235,0.908375322818756,-0.966971218585968,0.5841227173805239,1.20688152313232
8.58784008026123,-3.2352457046508802,0.8355437517166141,-0.7853968739509579,0.9787300229072571,2.03763365745544
10.521390914917001,-3.52657198905945,-0.15269199013710003,-0.254417896270752,0.821895003318787,1.8757592439651498
10.6773729324341,-3.304039478302,-0.799053192138672,0.304049223661423,0.15912571549415602,1.71709167957306
9.158528327941891,-2.55059933662415,-0.845115065574646,0.561063230037689,0.053754560649394996,1.73572254180908
8.31371307373047,-1.8883857727050801,-0.9653543829917909,0.40606072545051597,0.28129515051841697,1.87392663955688
9.33320426940918,-1.7935701608657801,-1.4442180395126298,0.328788548707962,0.33642414212226895,2.0774915218353303
10.2867441177368,-1.80299186706543,-1.7579768896102899,0.419193923473358,0.107661828398705,2.0480182170867898
11.4504041671753,-1.37751805782318,-1.71086823940277,0.4760027229785921,-0.31596073508262607,1.94157803058624
13.437493324279801,-1.4973087310791,-1.1949157714843799,0.588551342487335,-0.5247178077697751,1.59339511394501
14.261970520019501,-1.9066309928893999,-0.90717887878418,0.760810256004333,-0.96483325958252,0.889699041843414
15.2663583755493,-3.18424868583679,-0.366251409053802,1.0068290233612098,-0.8984035849571229,0.16721943020820598
12.6559381484985,-2.5950162410736097,-0.339182615280151,1.06974625587463,-0.939635813236237,-0.557550847530365
10.4437732696533,-2.78150677680969,0.0451645292341709,1.1283875703811599,-0.328024983406067,-0.8362498879432679
10.6881408691406,-3.9551863670349103,0.0299102831631899,1.18870878219604,-0.777455866336823,-1.29530155658722
11.1918296813965,-4.21944379806519,0.17796617746353102,1.17649185657501,-1.78688097000122,-1.54498541355133
10.884950637817399,-3.95443844795227,0.52043890953064,0.994459331035614,-1.8797297477722201,-1.5917152166366597
9.8805627822876,-3.5953655242919904,0.15957136452198,0.380710542201996,-1.33531212806702,-1.84368968009949
8.78928661346436,-3.63424897193909,0.21759730577468897,-0.420262902975082,-0.246476873755455,-2.18713855743408
8.721987724304201,-3.97791814804077,0.41665023565292403,-0.86327987909317,0.386208176612854,-2.3873438835144
8.33973503112793,-4.73345184326172,0.0638584569096565,-0.726144671440125,0.570225894451141,-2.5292131900787402
7.5439715385437,-5.04362154006958,-0.5700899958610529,-0.384375631809235,0.629783511161804,-2.29128813743591
7.99576663970947,-5.136792182922361,-0.251695036888123,-0.34604495763778703,0.184628590941429,-1.5718626976013201
7.96884727478027,-5.00563526153564,-0.21684955060482,-0.486081719398499,-0.156987741589546,-0.750578582286835
7.344918727874759,-4.52497720718384,-0.0722333341836929,-0.5618267655372621,0.0447445623576641,0.251058220863342
6.8502025604248,-3.0904800891876203,0.780359268188477,-0.7142331600189209,0.0700947195291519,1.3556227684021003
8.74427127838135,-3.3074791431427,0.5599204897880551,-0.35352784395217896,0.2883199155330661,1.93974542617798
10.2242317199707,-3.98554515838623,0.0478564538061619,0.20127417147159601,0.0946813225746155,1.9876970052719098
10.5758275985718,-3.70887517929077,-0.0299102831631899,0.672237396240234,-0.249683812260628,2.22684359550476
9.718748092651369,-2.6938695907592796,-0.7677969932556149,1.07616019248962,-0.10521844029426598,2.3320620059967
9.38838958740234,-1.90707969665527,-1.78055918216705,1.1079242229461699,0.238077715039253,2.2896082401275604
10.19162940979,-1.80329096317291,-2.23803687095642,0.7518002390861508,0.36467581987381,2.13414764404297
11.1213912963867,-1.62353014945984,-2.36186552047729,0.298857033252716,0.0261137206107378,1.8027629852294902
11.6365957260132,-1.2499507665634197,-1.5870395898818999,-0.0476460866630077,-0.0610847249627113,1.52635455131531
12.9680519104004,-1.6655541658401498,-0.994217813014984,-0.10521844029426598,-0.136677071452141,1.03416442871094
14.578869819641099,-2.3979074954986603,-1.06974124908447,0.14904673397541,-0.5751127004623411,0.38177955150604204
15.1301164627075,-2.8866415023803698,-1.3275679349899299,0.358261913061142,-0.564575552940369,-0.280837029218674
12.9915313720703,-2.99372029304504,-1.35059881210327,0.17332790791988398,-0.0215323660522699,-1.00835609436035
11.0896863937378,-3.2515468597412096,-0.6207879185676569,-0.145228937268257,0.27610296010971097,-1.5594930648803702
10.553245544433599,-4.23065996170044,0.442672193050385,-0.00503948982805014,-0.250294655561447,-2.04679656028748
9.49516868591309,-4.20628309249878,1.0757232904434202,0.49646610021591203,-0.951394617557526,-2.11673855781555
8.85733222961426,-3.7118661403656,0.92691969871521,0.9874345660209659,-0.9775083065032959,-1.85300517082214
8.00264549255371,-3.06999135017395,0.313758879899979,1.0567657947540299,-0.7456917762756351,-1.78856074810028
7.81929588317871,-2.98444795608521,-0.0264705996960402,0.924822747707367,-0.43003648519515997,-1.7598509788513201
8.37622547149658,-3.45179629325867,-0.317647218704224,0.7528692483901981,-0.37658733129501293,-1.77771818637848
8.62507915496826,-3.9825541973114,-0.5620142221450811,0.5056288242340089,-0.434465110301971,-1.79466927051544
8.19571685791016,-4.1943187713623,-0.45089751482009904,0.11606097966432599,-0.336576849222183,-1.5784293413162198
8.184201240539549,-4.7325544357299805,-0.40692940354347207,-0.339783787727356,-0.062000997364521,-1.1409099102020301
8.22801971435547,-5.34765958786011,-0.32093733549118003,-0.6817055344581601,0.18355959653854395,-0.421026468276978
7.913662910461429,-4.69890546798706,0.29416763782501193,-0.7879929542541501,0.23456534743309,0.745844483375549
8.0494556427002,-3.09003138542175,-0.41874396800994895,-0.592674553394318,0.443933248519897,1.8591135740280198
9.37313461303711,-3.1556844711303698,-1.79446744918823,-0.44744563102722207,1.25605463981628,2.23402118682861
10.0864953994751,-3.96460795402527,-0.9343972206115719,-0.9463551044464108,0.8362498879432679,1.98494815826416
10.4143123626709,-3.78798770904541,0.38449668884277294,-0.950325608253479,-0.091932512819767,2.17736506462097
9.8333044052124,-2.7598218917846697,0.8886345028877259,-0.183712318539619,0.134691819548607,2.4369752407073997
9.74865818023682,-1.91051936149597,-0.36939200758934004,0.635281145572662,0.317487865686417,2.38031911849976
10.785648345947301,-1.59003067016602,-1.67452716827393,1.11769771575928,-0.12415470182895698,2.05397391319275
11.584102630615199,-1.4554343223571797,-1.66884422302246,0.99736088514328,-0.5625903010368349,1.4831371307373
11.612518310546902,-1.64327096939087,-1.0832009315490698,0.41705596446990995,-0.43568679690361,0.855796992778778
12.1064863204956,-2.3635106086731,-0.0653539672493935,-0.0758977755904198,0.0821589529514313,0.469741553068161
12.7335548400879,-2.83893442153931,0.45433720946312,0.00733016710728407,-0.0549762547016144,0.0852131918072701
13.992629051208501,-3.8521454334258998,0.6388836503028871,0.615886747837067,-0.538156449794769,-0.427440375089645
12.3402347564697,-3.14102840423584,0.48873403668403603,1.11830866336823,-0.8287670016288761,-0.7759287357330319
9.907182693481449,-2.7499513626098597,0.5832505226135251,1.35959327220917,-0.384070217609406,-1.02744507789612
10.1193962097168,-4.2130126953125,0.7398308515548709,1.5061966180801398,-0.694227933883667,-1.5043641328811599
10.1777219772339,-4.61500692367554,1.2025429010391202,1.75954556465149,-1.73526430130005,-1.6280606985092199
9.43684387207031,-3.93813753128052,1.2453145980834999,2.23661732673645,-1.94829738140106,-1.3887612819671598
8.3024959564209,-3.04576420783997,0.35084763169288596,2.22027707099915,-1.7442743778228798,-1.37593340873718
8.04825878143311,-2.72751879692078,-0.143718913197517,1.66287899017334,-1.21909844875336,-1.42755007743835
8.72153949737549,-3.21879506111145,-0.0035892338491976296,0.900541543960571,-0.981631517410278,-1.5924787521362298
9.26097106933594,-3.8161034584045397,0.177068874239922,0.274881273508072,-0.908635318279266,-1.8158961534500102
9.59103107452393,-4.45214557647705,0.206979155540466,-0.17577129602432298,-0.570531368255615,-1.8050535917282098
9.95264625549316,-5.20693159103394,0.17108681797981304,-0.5874823331832889,-0.254265159368515,-1.65982472896576
9.89566802978516,-5.89681243896484,0.406630307435989,-0.8811471462249759,0.157445877790451,-1.1267077922821003
8.00473976135254,-5.128417015075679,1.07617199420929,-0.9208522439002991,0.658493340015411,-0.18859909474849698
5.89337253570557,-2.9769704341888397,1.70069873332977,-0.707361102104187,1.15450131893158,1.00820338726044
7.48788976669312,-3.0116662979126,0.9568299651145941,-0.0293206684291363,1.4244958162307702,1.44053053855896
8.47208786010742,-3.8020455837249796,-0.49800622463226296,0.723548591136932,0.927266120910645,1.2282611131668102
8.86361312866211,-3.64426898956299,-1.28255295753479,0.953685283660889,-0.0427593067288399,1.39838206768036
8.61730194091797,-2.88424849510193,-1.42402863502502,0.809678018093109,-0.33184278011321994,1.7328209877014198
8.48629474639893,-2.5574786663055398,-1.58943247795105,0.481653064489365,0.0757450610399246,1.88828158378601
10.2065849304199,-2.68684077262878,-2.10717940330505,0.198219940066338,0.35215345025062605,2.16575884819031
11.379068374633801,-1.94700992107391,-2.0470597743988,0.053143709897995,0.22769331932067896,2.41086149215698
13.035649299621598,-1.1216355562210099,-1.65777742862701,0.11880978941917401,-0.042912021279335,2.2233312129974396
14.9190998077393,-0.925872802734375,-1.13599252700806,0.254570603370667,-0.35077902674675004,1.4765704870224
15.360276222228999,-2.2088744640350297,-0.866949558258057,0.382543087005615,-0.43889376521110496,0.28251686692237893
14.229368209838901,-2.90533542633057,-1.02756774425507,0.22830416262149802,-0.46012070775032,-0.7133168578147892
11.7825574874878,-2.41630220413208,-0.215054929256439,0.0143549107015133,-0.133011996746063,-0.9726215600967411
10.125528335571301,-2.72198534011841,0.6157031655311579,0.0971247106790543,-0.0131332157179713,-1.27438008785248
10.712517738342301,-4.0815572738647505,1.40458691120148,0.543654084205627,-0.8079982399940491,-1.61523282527924
10.3268241882324,-4.0260734558105495,1.74302172660828,1.3653963804245002,-1.56926655769348,-1.4710729122161899
9.237791061401369,-3.1531419754028303,1.20299160480499,2.1993556022644,-1.6560069322586102,-1.32141530513763
8.28589630126953,-2.6087749004364,0.112313114106655,2.4160535335540803,-1.53780794143677,-1.4722945690155
8.246265411376951,-2.7749264240264906,-0.27427729964256303,2.02037739753723,-1.33729732036591,-1.6555488109588603
9.227621078491211,-3.23255395889282,-0.318095862865448,1.2810994386673,-1.3150014877319298,-1.84048283100128
10.4754781723022,-3.65040040016174,-0.528963327407837,0.519067466259003,-1.1416735649108898,-1.9687607288360602
11.0742826461792,-4.2770209312439,-0.6505486369133001,-0.16645587980747198,-0.739583313465118,-2.07871317863464
10.3848505020142,-4.57552576065063,-0.523280382156372,-0.8510629534721371,-0.36452311277389504,-2.01274180412292
9.40154933929443,-4.983651161193849,-0.0112163564190269,-1.33088350296021,0.34986275434494,-1.5162756443023702
7.37258577346802,-3.57966256141663,0.0299102831631899,-1.4515258073806798,0.9330691695213321,-0.59343808889389
6.2201423645019505,-1.9682462215423602,-0.9240781664848331,-1.3423368930816697,2.2564697265625,0.37124243378639205
7.23096036911011,-1.98215448856354,-0.31734809279441806,-1.68639659881592,2.9111452102661097,0.90909343957901
9.816853523254391,-2.48315167427063,0.917198836803436,-1.18046236038208,0.9852966070175171,1.2206255197525
8.47104072570801,-2.7611677646637003,0.6115157604217529,0.325276166200638,0.0563506595790386,1.13861930370331
7.5985579490661594,-2.6665017604827903,0.29656046628952,1.1425898075103798,0.150421142578125,1.73343181610107
8.39895725250244,-2.2317557334899902,0.17108681797981304,1.0944855213165299,-0.0166455879807472,2.25051403045654
9.82971572875977,-2.28155636787415,-0.315852582454681,1.3890666961669902,-0.16431790590286302,2.45743846893311
11.254042625427198,-2.10030007362366,-1.43374943733215,1.70044600963593,-0.561215937137604,2.39482665061951
11.300254821777301,-1.7273188829422,-1.47442746162415,1.33439588546753,-0.37506023049354603,2.03335785865784
12.4803647994995,-1.75857508182526,-0.8340482711791991,0.562743008136749,-0.13560809195041698,1.69723916053772
14.1683511734009,-2.05364012718201,-0.0737288445234299,0.322374641895294,-0.224486365914345,1.23757660388947
15.6091299057007,-2.21724939346313,0.0433699116110802,0.540447115898132,-0.582748293876648,0.5163186192512511
14.0371952056885,-1.41326081752777,-0.0922732204198837,0.69987827539444,-0.0395523607730865,-0.0885728523135185
10.639087677002,-1.09890377521515,0.72786670923233,0.709193646907806,1.06165254116058,-0.47676628828048706
9.747312545776369,-1.82766783237457,1.4395818710327102,0.7479824423789979,0.427745789289474,-0.7038487792015079
9.45718288421631,-2.5706393718719505,1.6974085569381698,1.19237387180328,-0.69651859998703,-1.1028847694397
9.44925689697266,-2.5232315063476602,2.17642164230347,1.5513993501663201,-1.30125737190247,-0.965596795082092
9.091978073120119,-2.11869478225708,1.84785723686218,1.5944640636444098,-1.31362700462341,-0.8498412370681759
8.97801971435547,-1.80433785915375,2.0603697299957298,1.3437112569808998,-1.1401463747024498,-1.00942504405975
8.855387687683109,-2.2027428150177,2.05364012718201,1.28094673156738,-1.0862390995025601,-1.3792930841445903
9.32303524017334,-3.00852584838867,1.7331513166427601,1.12609696388245,-1.0111049413681001,-1.683953166008
10.264909744262699,-3.27607321739197,1.3739289045333898,0.661242187023163,-0.785854995250702,-1.8165069818496697
10.2189979553223,-3.53105854988098,1.0030413866043102,0.0665823519229889,-0.0850604772567749,-1.8490346670150801
10.1023473739624,-3.8884863853454603,1.708624958992,-0.681858241558075,0.304201930761337,-1.7123575210571298
9.76839923858643,-4.24471759796143,2.03614258766174,-0.909551560878754,0.305118203163147,-1.22093093395233
7.77158880233765,-3.30987191200256,2.2657039165496804,-0.793032467365265,0.36834090948104903,-0.342074453830719
6.510272026062009,-2.0111675262451203,2.5504498481750497,-0.45080527663230896,0.5726693272590639,0.615123212337494
7.730163097381589,-2.10688042640686,1.9084255695343,0.19012621045112602,0.5923691391944891,1.2441431283950801
9.65174961090088,-2.57512593269348,1.22512519359589,0.747218906879425,0.0438282899558544,1.45916140079498
9.5280704498291,-2.34616255760193,0.717099010944366,1.02271103858948,-0.20387026667594899,1.55995118618011
8.69282531738281,-1.75319123268127,0.21804596483707397,0.890004456043243,0.305270910263062,1.6700564622879
8.28350353240967,-1.0354939699173,0.20802602171897897,0.574043691158295,0.664601802825928,1.64088845252991
8.88215732574463,-1.1877373456954998,-0.41709890961646995,0.510821044445038,0.5650337338447571,1.46526980400085
10.1134147644043,-1.74332082271576,-0.39556348323822,0.19547112286090898,0.127514362335205,1.1377030611038201
10.1814603805542,-1.71789705753326,-0.227617248892784,-0.26587125658989,0.0975828468799591,1.03844034671783
10.6307125091553,-1.8378373384475701,0.28878378868103,-0.565491855144501,0.6038225293159479,1.1471711397171
12.843625068664599,-2.35782766342163,1.20224380493164,-0.6810947060585021,0.0624591335654259,1.1173923015594498
14.7285709381104,-2.6597719192504905,1.64686024188995,-0.28694549202919,-0.420110195875168,0.976286649703979
13.230963706970199,-1.72926306724548,1.23948216438293,0.0849077701568604,-0.58381724357605,0.7159129977226261
11.817254066467301,-1.23290181159973,1.09770739078522,0.35016819834709195,-0.134386390447617,0.112701319158077
10.6999549865723,-2.9602208137512203,1.05822587013245,0.629172682762146,-0.118198946118355,-0.9663603901863101
11.6358480453491,-3.4784164428710898,1.2937692403793302,0.9287932515144351,-1.3434058427810702,-0.962237119674683
10.0987586975098,-3.0898818969726602,0.8811569213867191,1.56178367137909,-1.21894574165344,-0.8964183330535892
8.6857967376709,-2.07218432426453,0.746710240840912,1.53231036663055,-1.17236864566803,-1.08486473560333
