ax,ay,az,wx,wy,wz
9.56949615478516,0.21804596483707397,-0.5098207592964171,0.31367006897926303,0.29641363024711603,1.41151535511017
10.3209915161133,0.43459641933441207,-0.9343972206115719,0.630852520465851,0.14660334587097198,1.3044643402099598
10.2922782897949,0.7238288521766659,-1.0537393093109102,0.889088213443756,0.00565033731982112,1.0356914997100801
10.232008934021,0.6865905523300171,-1.09606230258942,1.02210021018982,-0.0407740548253059,0.7414158582687379
11.0346508026123,0.394666194915771,-1.03459668159485,1.1514470577240001,-0.317182451486588,0.4863871335983279
12.400354385376,0.0035892338491976296,-1.1017452478408798,1.21069931983948,-0.47294849157333396,0.16401249170303303
12.927971839904801,-0.10842477530241,-1.25982117652893,0.8871029615402221,-0.45844087004661604,-0.167830288410187
12.995121002197301,-0.277268320322037,-0.723380208015442,0.268620073795319,-0.4640912115573879,-0.387888014316559
11.8034954071045,-0.169890403747559,0.285942316055298,0.034360159188509,-0.29122143983840904,-0.5419742465019229
9.2380895614624,0.0931705310940742,1.15349006652832,0.46653458476066606,-0.104760304093361,-0.7223268747329709
9.51700305938721,-0.6403791308403021,1.21704936027527,1.1693143844604499,-0.585955262184143,-0.8945857882499691
10.404890060424801,-1.30842530727386,1.69576346874237,1.9011093378066999,-1.00911962985992,-1.02851402759552
10.1635141372681,-1.33998072147369,1.74840557575226,2.38352608680725,-1.11128389835358,-1.11998844146729
9.0355978012085,-0.9653543829917909,0.887587666511536,2.2657852172851602,-0.7867712974548341,-1.1267077922821003
8.71151924133301,-0.881456017494202,0.326470732688904,1.56025660037994,-0.441337138414383,-1.06104171276093
8.93136024475098,-1.12058877944946,0.704686284065247,1.03065204620361,-0.319014966487885,-1.0413419008255
9.16495895385742,-1.30707931518555,0.75897341966629,0.8582404255867,-0.31550261378288297,-0.890920698642731
9.32692337036133,-1.30334055423737,0.581007242202759,0.684301614761353,-0.264649569988251,-0.756076216697693
9.93096160888672,-1.6034902334213301,0.248404905200005,0.36849361658096297,-0.242048233747482,-0.6786513328552249
10.9586791992188,-2.1774685382843,0.0889830887317657,0.00794101413339376,-0.0644443854689598,-0.534644067287445
11.455189704895,-2.9111678600311297,0.0883848890662193,-0.36421766877174394,0.11682453751564,-0.252279907464981
9.33574676513672,-2.3170001506805398,0.8009973764419559,-0.43660306930542,0.698503851890564,0.38575005531310996
8.07876777648926,-1.14257276058197,0.39750766754150396,-0.0855186134576797,1.19939863681793,0.978271901607513
9.81356430053711,-0.8923733234405521,-0.634546637535095,0.23945212364196802,1.0630269050598102,0.9833113551139828
11.185399055481,-1.12911319732666,-1.61066877841949,0.325887024402618,0.556939959526062,0.48592898249626204
9.91017436981201,-0.9242277741432191,-1.31560385227203,0.19791451096534698,0.560299634933472,0.33275905251503
8.56854820251465,-0.599551618099213,-0.8406285047531129,0.0140494871884584,0.615428626537323,0.6375718116760251
8.54581642150879,-0.193669080734253,-1.06944215297699,0.0931542068719864,0.6073349118232729,0.9936957955360409
9.16002464294434,0.193220421671867,-2.06171584129333,0.29977330565452603,0.45065256953239397,1.08257400989532
9.61944580078125,0.20623140037059803,-1.43165564537048,0.17989452183246601,-0.0212269425392151,0.9469659924507141
9.39496898651123,0.362512618303299,-0.44491547346115096,0.35016819834709195,-0.437366634607315,0.831973969936371
10.354043006897,0.0318544507026672,-0.12592229247093198,0.721410632133484,-0.326345145702362,0.718356370925903
12.3571338653564,-0.38524445891380293,-0.5253741145133971,0.905275642871857,-0.632379651069641,0.552664041519165
13.907982826232901,-0.482452869415283,-0.897607564926147,0.7992936372756959,-0.601073682308197,0.30466008186340304
13.588839530944801,-0.41216370463371294,-0.42263230681419395,0.411558330059052,-0.32771956920623807,-0.134386390447617
11.451151847839402,-0.231505587697029,0.0306580401957035,0.0755923464894295,-0.046729814261197995,-0.46760356426238997
8.89711284637451,-0.0148055898025632,1.0168000459671,0.311837524175644,0.17745113372802698,-0.589925765991211
9.85633563995361,-0.763459980487823,0.6025426387786871,0.7948650121688839,-0.36498123407363897,-0.650857746601105
10.2182502746582,-0.7159026265144351,0.5620142221450811,1.0111049413681001,-0.5212054252624511,-0.7831062078475949
10.1367444992065,-0.613908588886261,0.215354040265083,0.553580343723297,-0.633143186569214,-1.01507544517517
9.419047355651859,-0.8027920126914979,0.95129656791687,-0.0456608310341835,-0.18585027754306802,-1.36906147003174
8.45593643188477,-1.1250753402709999,1.4503495693206798,-0.11758809536695501,0.251669079065323,-1.49550676345825
8.908628463745119,-1.53529477119446,1.25937247276306,0.113006740808487,0.260984480381012,-1.32217884063721
8.88634490966797,-1.57776737213135,0.9518947601318359,0.39231663942337,0.145381644368172,-1.0164498090744
9.04995441436768,-1.4353945255279499,0.6803094148635861,0.539072692394257,0.0455081202089787,-0.752105712890625
9.89521884918213,-1.75722908973694,0.00418743956834078,0.5178457498550421,-0.0462716780602932,-0.490815758705139
11.0205936431885,-2.15787744522095,-0.28564319014549294,0.266329407691956,-0.27549210190773,-0.12858334183692902
11.190782546997099,-2.1672990322113,-0.348006129264832,-0.110410645604134,-0.20142687857151,0.404991745948792
9.08958530426025,-1.0911271572113,0.404985219240189,-0.275797545909882,0.38300123810768105,0.9625425934791559
8.437840461730959,-0.156729876995087,0.24750758707523302,-0.0157293174415827,0.650857746601105,1.2636902332305902
10.7419786453247,-0.6569793820381159,-0.718445003032684,0.37964156270027205,0.294733792543411,1.03950929641724
10.963016510009801,-0.8150551915168759,-1.10234344005585,0.5648810267448431,-0.025808297097682998,0.5563291311264039
9.78485012054443,-0.704536736011505,-0.653838813304901,0.318556845188141,-0.0679567605257034,0.383917510509491
8.53474998474121,-0.4689932465553279,-0.23359930515289298,-0.129957750439644,0.126445382833481,0.6361974477767939
8.502147674560549,-0.397657215595245,0.0195912346243858,-0.244033485651016,0.26266431808471696,0.8614473342895509
8.93315505981445,-0.429661214351654,-0.0644566565752029,-0.0920852273702621,0.111021488904953,0.983464062213898
9.03709316253662,-0.0910768136382103,-0.11814561486244197,0.14202198386192302,-0.0314586348831654,1.05493319034576
9.251100540161131,0.315553486347198,-0.44401815533638,0.274881273508072,0.0378725305199623,0.9891144037246701
10.4570837020874,0.0961615592241287,-0.60029935836792,0.0998735278844833,-0.13087402284145402,0.750120460987091
12.3387393951416,-0.0481555573642254,-0.35653057694435103,-0.12430741637945199,-0.374907493591309,0.5871769189834589
13.774881362915002,-0.33738797903060896,-0.10079765319824198,-0.263886004686356,-0.17958909273147602,0.178520113229752
13.000056266784698,-0.36460635066032393,0.19037894904613503,-0.34329617023468,0.14492350816726698,-0.28511294722557107
11.3066854476929,-0.27846473455429105,0.35383865237236,-0.22189027070999104,0.30603447556495694,-0.5233433842659
9.799356460571289,-0.312861561775208,0.9798609018325809,0.261900752782822,0.151642829179764,-0.721868753433228
10.648658752441401,-0.9148060083389279,0.931107103824615,0.948798477649689,-0.47646087408065796,-0.7997517585754391
11.3171539306641,-0.957129061222076,0.942323446273804,1.5622419118881201,-0.6267293095588679,-1.02362728118896
9.93081188201904,-0.740129947662354,0.591924488544464,1.59812915325165,-0.44714018702507,-1.4025052785873402
8.75249671936035,-0.850648462772369,0.167946234345436,1.11785054206848,-0.256097704172134,-1.53521192073822
8.57617568969727,-1.13644123077393,0.553489804267883,0.807540059089661,-0.129346907138824,-1.51749730110168
8.570193290710451,-1.4352449178695699,0.705134928226471,0.900083422660828,-0.23823043704032898,-1.30721318721771
8.5698938369751,-1.32382917404175,0.382702082395554,0.97949355840683,-0.364064961671829,-0.9961391687393192
9.25229740142822,-1.3586746454238898,-0.17437694966793102,0.6713211536407471,-0.42331716418266296,-0.8154810667037959
9.96191883087158,-1.6526926755905198,-0.6127121448516851,0.0380252413451672,-0.31550261378288297,-0.601989984512329
10.3534440994263,-2.08983159065247,-0.157328084111214,-0.648414373397827,-0.195012986660004,-0.20616094768047302
10.475029945373501,-2.38355040550232,0.316600352525711,-0.978577315807343,-0.0131332157179713,0.4332434237003329
8.64033317565918,-1.60498583316803,1.1554342508316002,-0.857629537582397,0.48119491338729903,1.1807677745819098
7.73958492279053,-1.0431210994720501,1.1576775312423702,-0.393080204725266,0.864501595497131,1.65249454975128
10.189236640930199,-1.2945170402526898,0.575324296951294,0.162179946899414,0.5031854510307311,1.8687344789504998
11.7882404327393,-1.0700403451919598,-0.196660116314888,0.714691281318665,0.193944007158279,1.6002670526504499
10.8445711135864,-0.601794898509979,-0.155084818601608,0.9384140968322751,0.22418093681335396,0.870304644107819
8.91131973266602,-0.171984121203423,-0.5775675773620611,0.707513809204102,0.43919917941093395,0.5825955867767328
8.72497940063477,-0.244067907333374,-1.07407832145691,0.0974301397800446,0.46012070775032,0.709346354007721
8.92433071136475,-0.220887437462807,-0.8497511148452759,-0.279157191514969,0.37506023049354603,0.8063184022903441
8.98744201660156,0.159421801567078,-0.341425895690918,-0.25258535146713296,0.165539607405663,0.9649859666824341
10.7968645095825,0.14566308259964003,-0.18469600379467002,0.076355904340744,-0.153017237782478,0.8561024069786071
12.506237030029302,0.065653070807457,-0.399003177881241,0.40117394924163796,-0.248920261859894,0.41797223687171897
14.408381462097198,-0.47497528791427596,-0.5697908997535711,0.28938889503479,-0.428356647491455,-0.0786465853452682
14.681312561035199,-0.733848810195923,-0.640528738498688,-0.251669079065323,-0.215781792998314,-0.435992240905762
11.0039930343628,0.0468095913529396,0.192771777510643,-0.530978977680206,0.387888014316559,-0.71789824962616
9.20204830169678,-0.319441825151443,0.629760980606079,-0.36666107177734397,0.331079214811325,-1.00102591514587
9.92303562164307,-0.8842974901199341,0.710518777370453,0.119115218520164,-0.20921517908573198,-1.1196830272674598
10.3929262161255,-1.04611217975616,1.36675035953522,0.698961973190308,-0.512806296348572,-1.1251806020736699
9.71037292480469,-0.818195819854736,1.3422240018844598,0.9246700406074521,-0.5783196687698361,-1.21237909793854
8.70957565307617,-0.665204703807831,1.12058877944946,0.713469624519348,-0.24632415175437902,-1.1795459985733001
8.29232692718506,-0.626919507980347,1.1410772800445599,0.501352906227112,0.0787992998957634,-1.11891949176788
9.009724617004391,-1.0748260021209701,1.10697960853577,0.418888509273529,0.0693311616778374,-1.1050226688384999
9.13609600067139,-1.2423236370086699,1.04342019557953,0.45706647634506203,0.00259610079228878,-1.03248453140259
9.49935626983643,-1.33983111381531,0.6565307378768921,0.37261682748794606,-0.0989572554826736,-0.836402595043182
9.88445091247559,-1.40862476825714,0.517148792743683,0.0380252413451672,-0.0977355614304543,-0.6247440576553339
10.4977617263794,-1.8471095561981201,0.512213587760925,-0.288625329732895,-0.108730815351009,-0.33184278011321994
10.1066846847534,-1.65418815612793,0.837188839912415,-0.478293389081955,-0.0395523607730865,0.157598599791527
8.42692279815674,-0.8261220455169681,0.995713293552399,-0.44271156191825894,0.338409394025803,0.6192464232444761
8.82622528076172,-0.6100202202796939,0.934995472431183,-0.256097704172134,0.317029714584351,0.8328902125358578
10.260273933410598,-0.7579265832901,0.44476589560508706,0.0482569336891174,0.15927842259407002,0.8912261724472049
10.429864883422901,-0.731904625892639,0.270089864730835,0.3089359998703,0.16828842461109197,0.8735115528106691
9.0201940536499,-0.366849631071091,-0.132203444838524,0.271827042102814,0.3924693763256071,0.947729527950287
8.29367256164551,-0.16286149621009802,-0.29760730266571006,0.11942064017057401,0.451874256134033,1.1390774250030502
8.89486980438232,-0.19516459107398998,-0.311665147542953,0.10369132459163699,0.174855023622513,1.29469072818756
9.67343425750732,-0.101246304810047,-0.40334016084671004,0.12064233422279401,-0.105371154844761,1.3608149290084801
9.77153968811035,0.422781854867935,-0.14536397159099598,0.064597100019455,-0.13011047244072,1.38540160655975
10.424780845642099,0.672383189201355,-0.06236293911933901,0.136829793453217,-0.0716218426823616,1.21115744113922
11.9207429885864,0.43878385424614,-0.0231804698705673,0.31473904848098805,-0.31993123888969394,0.887255668640137
13.236945152282699,0.267397940158844,0.0683449953794479,0.48272204399108903,-0.359941750764847,0.484554588794708
14.3908843994141,-0.124576330184937,-0.0487537607550621,0.392927497625351,-0.48684525489807107,0.0201579593122005
12.680763244628901,0.17587246000766799,-0.06071787327528,0.116671822965145,-0.0477987974882126,-0.44805645942688005
9.49023342132568,0.0450149774551392,0.318694055080414,-0.125987246632576,0.266023993492126,-0.910009682178497
9.98031330108643,-0.921535849571228,0.7663014531135559,0.0221432130783796,-0.339631080627441,-0.8744278550148009
10.8394861221313,-1.06286191940308,1.17517507076263,0.565949976444244,-0.588245928287506,-0.733169436454773
10.448558807373,-0.67911297082901,1.31440734863281,1.0164498090744,-0.46790900826454207,-0.9866710305213929
9.09108066558838,-0.5947659611701971,0.639332294464111,0.905122935771942,-0.282974988222122,-1.2930109500884999
8.46161937713623,-0.811316430568695,0.6384350061416629,0.598172187805176,-0.116366401314735,-1.3878449201583898
8.726474761962889,-1.22108733654022,0.8555836677551271,0.6384881138801569,-0.0349710062146187,-1.35959327220917
8.98878765106201,-1.51884412765503,0.502642333507538,0.7133168578147892,-0.072843536734581,-1.23177349567413
9.46166896820068,-1.73180544376373,0.0246759839355946,0.628409147262573,-0.0997208133339882,-0.9961391687393192
9.93395233154297,-1.8116658926010099,-0.539431929588318,0.310157686471939,-0.0905581042170525,-0.7627955079078671
10.150652885437,-2.02163600921631,-0.502044081687927,-0.209367901086807,-0.05757235363125799,-0.516013205051422
11.269895553588901,-2.67652177810669,-0.561416029930115,-0.709193646907806,-0.21257483959198,-0.0409267656505108
10.0174026489258,-2.08175563812256,0.16645072400569902,-0.89764004945755,0.27152159810066195,0.731336891651154
8.05483913421631,-0.620189726352692,0.530309319496155,-0.673153698444366,0.677124202251434,1.22093093395233
9.20040321350098,-0.4966602623462679,0.0112163564190269,-0.18905723094940197,0.551289677619934,1.2406307458877601
10.745418548584,-0.8639585375785831,-1.0760223865509,0.24006296694278698,0.136524364352226,0.8353336453437809
10.220193862915,-0.8588737845420841,-1.34087800979614,0.193485870957375,-0.0511584579944611,0.348030239343643
7.939086437225339,-0.464058041572571,-1.29436755180359,-0.5178457498550421,0.163096219301224,0.37170055508613603
7.35119962692261,-0.18185451626777602,-1.97647154331207,-1.6192033290863002,0.3578037917613979,0.8295305967330929
9.01705265045166,-0.6620641350746149,0.0922732204198837,-2.22455310821533,-0.04703523963689799,1.01477003097534
10.1741323471069,-0.5513960719108579,0.752841830253601,-1.72946131229401,-0.35520768165588396,1.0999832153320301
10.263115882873501,-0.30717861652374295,0.793818891048431,-1.07325863838196,0.0926960706710815,0.938719511032104
10.6520986557007,-0.31824541091918895,0.7576274871826171,-0.703543305397034,-0.11361759155988699,0.8528954982757572
12.3254289627075,-0.0850947573781013,0.370289295911789,-0.23884128034114802,-0.237008735537529,0.936123430728912
13.988889694213901,-0.276071906089783,-0.22821545600891102,0.104302167892456,-0.17714570462703697,0.7824953198432919
12.719647407531701,0.6354439854621889,-0.704387187957764,0.0881147161126137,0.17714570462703697,0.38223767280578597
10.4001045227051,0.7843971848487851,-0.597308337688446,-0.217308908700943,0.35872006416320795,-0.22280654311180104
10.24875831604,-0.0780658423900604,-0.321984201669693,-0.349099218845367,0.0314586348831654,-0.557092726230621
10.8133153915405,-0.54376894235611,-0.0774676352739334,-0.0401632077991962,-0.18829366564750696,-0.605655074119568
10.8692474365234,-0.609122931957245,0.321535557508469,0.387888014316559,-0.19883078336715698,-0.984838485717773
9.8805627822876,-0.533001244068146,0.130558386445045,0.556176424026489,-0.0908635333180428,-1.32844007015228
9.58729267120361,-0.786790013313293,-0.308823674917221,0.4862344264984129,0.0332911759614944,-1.51062524318695
9.32961559295654,-1.27432763576508,-0.285194545984268,0.31596073508262607,-0.0226013492792845,-1.64882946014404
8.94691371917725,-1.3688441514968899,-0.0800100043416023,0.17897824943065602,-0.0841442123055458,-1.47473800182343
8.75473976135254,-1.34641134738922,-0.0124127678573132,0.11682453751564,0.00381779531016946,-1.18290567398071
9.62572765350342,-1.4330016374588002,-0.10932208597660101,0.0888782739639282,-0.0853659063577652,-0.8936695456504821
11.016106605529801,-1.65912342071533,-0.543320298194885,0.11743538826703999,-0.284349411725998,-0.6713211536407471
12.0249805450439,-2.01909375190735,-1.70623207092285,-0.14782503247261,-0.396745294332504,-0.43797749280929604
10.4512510299683,-1.7522939443588301,-1.5142080783844,-0.8842014074325558,-0.202190443873405,0.0792574286460876
8.40344333648682,-0.567547619342804,-0.579063057899475,-1.28781878948212,0.25884652137756303,0.5694623589515689
8.326724052429201,-0.224177569150925,-0.42038902640342696,-1.1690089702606201,0.36742463707923906,0.537545561790466
8.8730354309082,-0.858724236488342,-0.27397820353508,-0.867708504199982,-0.0891837030649185,0.27472856640815696
8.76027297973633,-1.12193477153778,-0.10513464361429199,-0.523954212665558,-0.308630585670471,0.398272424936295
7.89197778701782,-0.8288139700889591,0.0515952371060848,-0.439810037612915,-0.11132691055536299,0.8148702383041379
7.614111423492429,-0.546460866928101,0.000598205660935491,-0.5563291311264039,0.00580304907634854,1.1948171854019198
8.333004951477049,-0.388085931539536,-0.0713360235095024,-0.472184926271439,0.0800209939479828,1.4918416738510099
10.1355476379395,-0.388085931539536,-0.865454018115997,-0.303896516561508,0.0178672820329666,1.60057258605957
10.7327070236206,-0.0261714980006218,-0.490827739238739,-0.25915193557739297,0.0401632077991962,1.5284925699234
11.762218475341802,0.23778675496578197,-0.68165534734726,-0.17057909071445498,0.0566560849547386,1.30308985710144
13.166506767272901,0.332602351903915,-1.1844471693038898,-0.219446882605553,0.10506572574377099,0.9187142848968509
14.580814361572301,0.0683449953794479,-1.45752811431885,-0.45172154903411893,-0.0713164210319519,0.389720559120178
12.817303657531701,0.284596353769302,-1.22437739372253,-0.690868258476257,0.468214422464371,-0.17210622131824502
9.55050277709961,0.27397820353508,-0.733250617980957,-0.846939742565155,0.7879929542541501,-0.640320658683777
10.1766748428345,-0.617348253726959,-0.172133684158325,-0.7543963789939879,-0.0181727055460215,-0.681858241558075
10.944322586059599,-0.8373383879661559,0.247208490967751,-0.18691925704479198,-0.34589225053787204,-0.619093716144562
10.4506530761719,-0.6526423692703249,0.9396315217018131,0.50043660402298,-0.17745113372802698,-0.945896983146667
8.5941219329834,-0.590578556060791,0.36176487803459206,0.866486847400665,0.0983464121818542,-1.17801892757416
7.68873739242554,-0.6689434647560121,0.148055896162987,0.9633061289787289,0.0316113457083702,-1.1277767419815101
8.81456089019775,-1.01979112625122,0.0273679085075855,1.04531240463257,-0.288930743932724,-1.12105739116669
9.68928623199463,-1.4473586082458503,-0.45807597041130105,1.02087843418121,-0.25319617986679105,-1.14640760421753
9.241679191589359,-1.4862419366836501,-0.7630113363265991,0.600310146808624,-0.11071606725454301,-0.9643751382827759
10.006934165954599,-1.58330082893372,-0.8641080856323241,0.0181727055460215,-0.0510057471692562,-0.6720846891403199
10.502099037170401,-1.7259728908538798,-0.920040309429169,-0.263886004686356,0.0412321910262108,-0.40010493993759205
12.022587776184098,-2.2132112979888903,-1.6658532619476298,-0.477071702480316,-0.305118203163147,0.00549762509763241
11.7943725585938,-1.7937196493148797,-1.89257311820984,-0.784022450447083,-0.19241689145565,0.351542592048645
9.01346397399902,-0.48335018754005393,-0.862612545490265,-0.934443593025208,0.6012263894081121,0.49493899941444397
9.56530857086182,-0.6306583285331729,-0.813559710979462,-0.900694310665131,0.19913621246814703,0.27595025300979603
10.0284690856934,-1.09725868701935,-1.31724882125854,-0.65559184551239,-0.34161633253097495,0.042912021279335
8.67592620849609,-0.8889335989952091,-0.811316430568695,-0.489746779203415,-0.302674829959869,0.0516165941953659
7.10683298110962,-0.712612509727478,-0.4284648001194,-0.7950177192687992,-0.301147699356079,0.241590097546577
6.767052173614499,-0.595214605331421,0.0527916513383389,-1.25773453712463,-0.285876512527466,0.707208395004272
7.6438717842102095,-0.7067800164222721,0.5819045305252081,-1.3023263216018701,0.00794101413339376,1.00087320804596
8.45533752441406,-0.63918274641037,0.578614413738251,-1.0865445137023901,0.0174091476947069,1.2864443063736
9.50728225708008,-0.39975091814994795,0.592223584651947,-0.81089973449707,-0.0143549107015133,1.44786071777344
11.203345298767099,-0.4494020044803621,0.589083015918732,-0.573127448558807,-0.00473406631499529,1.4353383779525801
12.6851005554199,0.167198479175568,0.153738856315613,-0.373227685689926,0.110563352704048,1.3795984983444198
15.181262969970698,0.28265216946601895,-0.10633105784654599,-0.23975755274295799,0.0447445623576641,0.983158648014069
15.1326589584351,0.6055336594581601,-0.794417142868042,-0.220363155007362,0.40529716014862105,0.267092972993851
11.2981605529785,0.3991527259349821,-0.8542376756668091,-0.326803296804428,1.0433270931243899,-0.486997991800308
8.37592601776123,-0.459721058607101,-0.53599226474762,-0.31000497937202504,0.752105712890625,-0.692700803279877
8.21456050872803,-1.51331079006195,-0.509222567081451,0.150115713477135,-0.0896418318152428,-0.38376480340957597
9.86874866485596,-1.50777733325958,0.19067806005477897,0.9610154628753659,-0.7875348329544071,-0.10750912129878999
9.95593643188477,-1.1974581480026203,0.46390849351882896,1.7039583921432502,-0.671473860740662,-0.308630585670471
8.910871505737301,-0.6640082597732541,0.400947332382202,2.0128943920135502,-0.49387001991271995,-0.5439594984054571
8.47926616668701,-0.903440117835999,-0.20967108011245703,1.7671811580658001,-0.40560257434845,-0.7556180357933041
8.73170852661133,-1.44287204742432,-0.470189660787582,1.24628114700317,-0.5577035546302801,-0.9236010313034059
9.14177894592285,-1.7122141122818,-0.412313252687454,0.7241594195365909,-0.53479677438736,-0.885881245136261
10.2798652648926,-2.1689441204071,-0.380010157823563,0.185544848442078,-0.5091412067413329,-0.8590039610862729
10.941181182861301,-2.41390943527222,-0.676869690418243,-0.281142443418503,-0.282058715820312,-0.777455866336823
11.4414310455322,-2.90907406806946,-0.579810857772827,-0.7305732965469359,-0.119267925620079,-0.650094211101532
11.2975625991821,-2.99835634231567,-0.231505587697029,-1.0999832153320301,-0.137746050953865,-0.19043163955211603
8.8707914352417,-1.8686449527740498,0.6752246618270871,-1.03446984291077,0.37261682748794606,0.348030239343643
8.053493499755861,-1.07213413715363,0.7058826684951779,-0.824032962322235,0.641847729682922,0.583053708076477
9.665358543396,-1.0716854333877601,0.42921257019042997,-0.483485609292984,0.368951737880707,0.6377245187759399
10.335049629211401,-1.2478569746017498,0.0638584569096565,0.0406213440001011,0.120489619672298,0.352917015552521
8.63749122619629,-0.982403218746185,-0.19411773979663802,0.29381752014160195,0.352764278650284,0.0696365907788277
7.3971118927002,-0.5528915524482729,-0.279362052679062,0.0891837030649185,0.396745294332504,0.28480753302574197
8.589634895324709,-0.338584393262863,-1.2590733766555802,-0.24632415175437902,0.43431240320205705,0.49432814121246293
9.51550769805908,-0.0450149774551392,-2.10747861862183,-0.946049690246582,0.661547601222992,0.565186440944672
9.05279541015625,-0.0981057286262512,-0.22118654847145103,-1.4448064565658603,0.254570603370667,0.5352548956871029
9.58893775939941,-0.0631106942892075,0.514905512332916,-0.9630007147789,0.0132859274744987,0.6459710001945501
11.5048408508301,-0.611665308475494,1.10099756717682,-0.155155196785927,-0.31550261378288297,0.6192464232444761
13.913366317749,-0.920040309429169,0.6801598072051999,0.576945245265961,-0.656966209411621,0.441337138414383
14.5676536560059,-0.966401219367981,0.10663016140461,0.7383615970611569,-0.32695600390434304,0.178367406129837
11.459825515747099,-0.262014091014862,-0.008973085321486,0.431563585996628,0.33321717381477395,-0.0931542068719864
9.109625816345211,-0.426071971654892,0.06460621207952501,0.14874130487442003,0.439504593610764,-0.167677566409111
9.30060291290283,-0.941725254058838,0.476022154092789,0.404228180646896,-0.33703497052192705,0.0345128700137138
9.81610584259033,-0.8406285047531129,0.8614161610603329,1.15770828723907,-0.6817055344581601,-0.0519220158457756
9.204141616821289,-0.339780807495117,1.1237293481826798,1.79543280601501,-0.620162665843964,-0.517234921455383
8.04526805877686,-0.4950151741504671,0.6062814593315121,1.91378450393677,-0.40651884675025896,-0.842663764953613
8.127820014953612,-0.845414161682129,0.42068812251091,1.663489818573,-0.576487123966217,-0.859309375286102
9.35159969329834,-1.36106741428375,0.5904290080070501,1.57201540470123,-0.7704311013221741,-0.920699536800385
9.55753231048584,-1.5957136154174798,0.14162519574165303,1.4701566696166999,-0.6273401379585269,-0.9520054459571842
10.019795417785598,-1.85907363891602,-0.179910346865654,1.0520316362381,-0.5548020005226141,-0.830141425132751
10.887343406677198,-2.32238388061523,-0.251695036888123,0.6685723066329959,-0.44652935862541204,-0.687966704368591
11.4859972000122,-2.89411902427673,-0.193669080734253,0.45538663864135703,-0.35337513685226396,-0.48867779970169106
10.796565055847198,-2.72796726226807,-0.343070954084396,0.0862821787595749,-0.12537640333175698,0.0036650835536420298
8.37742137908936,-1.5672988891601598,0.212961211800575,-0.17317520081996898,0.544723033905029,0.5743491649627691
8.02388191223145,-0.684496819972992,0.031405795365572,-0.114228434860706,0.90099972486496,0.8686248064041141
10.3027467727661,-1.14960169792175,-0.563958406448364,-0.0716218426823616,0.562284886837006,0.710720777511597
11.060672760009801,-1.5083755254745501,-0.5409274697303771,-0.12888877093791998,0.11117420345544803,0.198219940066338
9.48694324493408,-1.5417255163192702,0.0874875783920288,-0.251363635063171,0.0755923464894295,-0.0157293174415827
7.794320583343509,-0.873679339885712,0.15658032894134502,-0.30985227227211,0.505781531333923,0.39063683152198797
8.489734649658201,-0.18783657252788502,-1.94715940952301,-0.7371399402618409,1.17481195926666,0.853964447975159
9.37358379364014,-0.26246273517608604,-1.5687943696975701,-1.82185196876526,0.9032903909683231,0.68017840385437
8.77298545837402,-0.524028182029724,1.22677028179169,-1.9325680732727097,0.116519115865231,0.500589311122894
9.318549156188961,-0.525822758674622,1.8305093050003098,-0.7933378815650941,-0.109952509403229,0.551595091819763
10.5728368759155,-0.91914302110672,2.0264217853546103,0.42224815487861606,-0.0746760740876198,0.510210156440735
11.188539505004899,-1.14032959938049,2.1689441204071,1.5662124156951898,-0.6499415040016171,0.556481838226318
13.9353504180908,-1.7964116334915199,0.905085146427155,2.42857599258423,-0.8619054555892941,0.47447562217712397
13.606337547302198,-1.17053890228271,-0.505633354187012,2.52249383926392,-0.200663328170776,0.22524993121624
9.69377326965332,-0.6028417348861689,-3.8481075763702406,1.63829231262207,0.884048700332642,-0.0818535313010216
8.84761142730713,-3.9840497970581095,-1.4940186738967902,-0.50685054063797,0.29488649964332597,-0.41216918826103205
7.683204174041751,-6.11904573440552,2.25747871398926,0.6972821354866031,-2.57181978225708,-0.529451847076416
7.95613527297974,-2.50947284698486,1.8405293226242099,3.34820652008057,-2.57808089256287,0.609320163726807
