ax,ay,az,wx,wy,wz
2.84775805473328,4.3151564598083505,10.4536437988281,-0.8153283596038822,1.43312406539917,-0.470352381467819
2.81754875183105,4.51196622848511,9.92572784423828,-0.304049223661423,1.2407834529876698,-0.312448382377625
2.11944270133972,4.37258434295654,9.66221809387207,0.366279274225235,0.289007097482681,-0.30412557721138
1.35762774944305,3.9571304321289102,9.20249652862549,1.00278210639954,-0.532887876033783,-0.414001733064651
0.7872386574745179,3.53120803833008,8.70479011535645,1.1435060501098602,-0.928716897964478,-0.4511106908321379
0.41515472531318703,3.2880373001098597,8.27408123016357,0.8192225098609921,-0.846023440361023,-0.351313531398773
0.16540385782718697,3.28026080131531,7.90738153457642,0.32726141810417203,-0.4848600029945371,-0.147214189171791
0.0155533468350768,3.47736954689026,7.63968467712402,-0.0766613334417343,-0.063604474067688,0.133470132946968
-0.13160525262355802,3.8069808483123797,7.52243614196777,-0.30603447556495694,0.18012358248233803,0.396898001432419
-0.43489551544189503,4.22602367401123,7.55832862854004,-0.358567327260971,0.310539484024048,0.548464477062225
-0.8099704384803771,4.74706125259399,7.79162883758545,-0.346808522939682,0.46279314160347,0.6977402567863461
-1.10368943214417,5.21455860137939,8.20798015594482,-0.274499475955963,0.751113057136536,0.9057337641716
-1.3067802190780602,5.5187463760376,8.80558776855469,-0.268772780895233,0.9486457705497741,1.1105203628540001
-1.41894388198853,5.3985071182251,10.268499374389599,-0.39437827467918396,0.38498649001121504,1.0780690908432
-0.9526425004005429,4.718945503234861,10.7587289810181,0.11804623156786001,0.52487051486969,1.06524121761322
-0.266500622034073,4.09322214126587,9.84377288818359,0.666892468929291,1.2175712585449199,1.32271337509155
-0.397208571434021,3.71246433258057,9.785149574279789,0.538919985294342,0.6783458590507511,1.2329188585281399
-0.722931563854218,3.2093734741210898,9.93739223480225,0.560681402683258,-0.102316915988922,0.6825454831123349
-0.32572299242019703,2.72512578964233,9.32812023162842,0.796392142772675,-0.22173754870891602,0.364828526973724
0.4268197417259221,2.57856559753418,8.45144939422607,0.762871861457825,0.0368035472929478,0.43270891904830894
0.8464609980583191,2.69551467895508,7.623233795166019,0.53869092464447,0.418354004621506,0.48379102349281294
0.839282512664795,2.92103815078735,7.0387868881225595,0.221126705408096,0.542203307151794,0.345739543437958
0.6158527135849,3.23090887069702,6.97208690643311,-0.12919420003891,0.36521029472351096,0.0600157417356968
0.30119654536247303,3.5820555686950697,7.639086246490481,-0.384910136461258,-0.0135913519188762,-0.381474107503891
0.0400797799229622,3.94247436523438,8.53938579559326,-0.563735663890839,0.0219141449779272,-0.9392540454864499
-0.32303106784820595,4.28165721893311,9.88863849639893,-1.17832434177399,0.275110334157944,-1.4422104358673102
-0.573081016540527,4.39172697067261,11.1508522033691,-1.84521687030792,0.409114956855774,-1.59606754779816
-0.14327025413513197,4.19342184066772,10.5245313644409,-1.4436610937118501,0.96567314863205,-1.1373976469039901
0.107976123690605,4.0776686668396005,9.43699359893799,-0.568698823451996,1.15411949157715,-0.33031564950943
-0.488135814666748,4.0809588432312,9.0816593170166,0.163554355502129,0.48111855983734103,0.24029204249382
-1.3310075998306299,3.9107694625854506,9.075676918029789,0.844190895557404,-0.632226884365082,0.28274592757225
-1.7596219778060902,3.6011981964111297,8.88724231719971,1.42411398887634,-1.4431266784668002,0.0773485377430916
-1.68155610561371,3.45045018196106,8.44905662536621,1.54712343215942,-1.5778948068618799,0.0365744791924953
-1.41984117031097,3.5844483375549303,7.999206066131589,1.10784780979156,-1.1857309341430702,0.17202985286712602
-1.2367901802063,3.87547540664673,7.60827875137329,0.474017471075058,-0.530062735080719,0.31092125177383395
-1.20299160480499,4.21047067642212,7.347161769866941,-0.0372616834938526,0.0386360883712769,0.369562596082687
-1.36271250247955,4.51166725158691,7.37886667251587,-0.396210789680481,0.26999449729919395,0.33390438556671104
-1.51884412765503,4.73240518569946,7.6947193145752,-0.564651906490326,0.331384629011154,0.35849097371101396
-1.42402863502502,4.97437906265259,8.08714199066162,-0.501352906227112,0.444544106721878,0.6594096422195429
-1.40787696838379,5.12213611602783,9.11007404327393,-0.406366139650345,0.35169529914856,0.9379559755325321
-1.40039944648743,4.726422786712651,10.066006660461401,-0.277782797813416,0.149733930826187,0.904512107372284
-0.956231772899628,4.12163686752319,9.52253723144531,-0.0453554093837738,0.7673004865646359,1.07822179794312
-0.969093143939972,3.9681973457336404,9.47109127044678,-0.257090330123901,0.629478096961975,1.35829520225525
-1.4623137712478602,3.71814727783203,9.991530418396,-0.134844526648521,-0.0788756534457207,1.17244493961334
-1.2681959867477401,3.1301112174987797,9.43011379241943,0.517463982105255,-0.0487914234399796,0.844267249107361
-0.780359268188477,2.85643196105957,8.86002445220947,0.6232932806015009,0.256708562374115,0.743935585021973
-0.68434727191925,2.92313194274902,8.71256637573242,0.17256435751915,0.636808276176453,0.589391231536865
-0.8132606148719791,3.0041887760162402,8.637790679931639,-0.296948134899139,1.02408540248871,0.263886004686356
-0.821934580802917,3.06490659713745,8.87527847290039,-0.477453500032425,1.0142354965209999,-0.0435228683054447
-0.690628409385681,3.1468608379364,9.25454044342041,-0.19722731411457103,0.7498149871826171,-0.259915500879288
-0.509671211242676,3.275475025177,9.27039337158203,0.39063683152198797,0.68017840385437,-0.34604495763778703
-0.6317051649093629,3.5183465480804403,9.2491569519043,0.6507813930511469,0.480049580335617,-0.37780901789665206
-1.07856476306915,3.73190593719482,9.4567346572876,0.360170811414719,-0.214254677295685,-0.70545220375061
-1.0983055830001802,3.85782837867737,9.19322490692139,0.120871402323246,-0.0936123430728912,-0.74653172492981
-0.8072785139083859,3.99750924110413,8.80199813842773,-0.215934500098228,0.137135207653046,-0.3891860544681551
-0.7579265832901,4.17368078231812,8.54536819458008,-0.42759308218956,0.229907631874084,0.0645207390189171
-1.0686944723129301,4.27118825912476,8.30548763275146,-0.272285163402557,0.0933832749724388,0.34604495763778703
-1.61485612392426,4.22034072875977,8.08594608306885,0.13576079905033098,-0.17477867007255599,0.34650310873985307
-2.06530499458313,4.22303295135498,8.032406806945799,0.38849884271621704,-0.40293011069297796,0.30290389060974104
-2.29710984230042,4.30379056930542,8.0120677947998,0.386971741914749,-0.35116082429885903,0.28182965517044106
-2.3117656707763703,4.421637058258059,7.87358283996582,0.24181915819644897,-0.0373380370438099,0.300765931606293
-2.30428814888,4.58913469314575,7.7790665626525906,-0.0275644827634096,0.246095091104507,0.35696387290954606
-2.3880369663238503,4.77457857131958,7.85922574996948,-0.263886004686356,0.378878027200699,0.45424130558967607
-2.39820647239685,4.93041086196899,8.02821922302246,-0.268467366695404,0.43797749280929604,0.663914620876312
-2.30398917198181,5.04616403579712,8.325527191162111,-0.0187835525721312,0.51341712474823,0.9623898267745971
-2.37607288360596,5.0569314956664995,8.98624515533447,0.0627645552158356,0.0840678513050079,1.08753716945648
-2.29023027420044,4.675575256347661,9.44925689697266,0.20997874438762698,-0.29977330565452603,0.924517333507538
-1.67258298397064,4.15962314605713,8.94377326965332,0.45775365829467796,0.7133168578147892,1.1490800380706798
-1.4904294013977097,4.004388809204101,8.75593662261963,-0.0363454110920429,0.829377889633179,1.43869805335999
-1.9393827915191697,3.89342164993286,9.092427253723141,-0.23975755274295799,0.15530791878700304,1.13579416275024
-1.9420746564865101,3.5512478351593,8.92552757263184,0.14606885612010997,0.0484096445143223,0.626347482204437
-1.3668999671936002,3.36520600318909,8.54716205596924,0.145839780569077,0.349480986595154,0.500742018222809
-1.0181460380554201,3.4268212318420397,8.23998355865479,-0.204557478427887,0.582824647426605,0.48508909344673207
-1.10159575939178,3.50099873542786,7.8323068618774405,-0.33359897136688205,0.723472237586975,0.26999449729919395
-1.2014961242675801,3.62093877792358,7.72941541671753,-0.27220880985260004,0.49493899941444397,0.023517619818448996
-1.11954188346863,3.78873562812805,7.9651083946228,-0.10086615383625001,0.0737598091363907,-0.193562224507332
-0.91346001625061,3.9299120903015097,8.36411190032959,0.105752930045128,-0.205015614628792,-0.427745789289474
-0.686441004276276,4.15782833099365,8.80618572235107,0.0243575349450111,-0.24762220680713698,-0.612832486629486
-0.591625392436981,4.44496726989746,9.57816982269287,-0.486921608448029,-0.473101198673248,-0.845336258411407
-0.31136605143547097,4.52692127227783,9.86829948425293,-0.584199070930481,-0.163401648402214,-0.9881218075752259
0.212063908576965,4.515555381774901,9.35264682769775,-0.163019865751266,0.30870693922042797,-0.6791094541549679
0.268893450498581,4.5424747467041,9.01914691925049,0.251439988613129,0.0157293174415827,-0.36826455593109103
-0.180658116936684,4.50598430633545,8.99611568450928,0.43568679690361,-0.7349256277084351,-0.355131328105927
-0.508474826812744,4.37557554244995,8.918947219848631,0.4685198366642,-1.2216944694519,-0.43347248435020397
-0.512064039707184,4.23559522628784,8.58454990386963,0.474170178174973,-0.926960706710815,-0.449201792478561
-0.5389832854270941,4.23948335647583,8.26720237731934,0.23517619073391002,-0.503338158130646,-0.36314868927002003
-0.79112696647644,4.37766885757446,8.06381225585938,-0.0729198902845383,-0.30618718266487105,-0.306492626667023
-1.0848460197448702,4.525126934051509,7.834998607635501,-0.223417386412621,-0.25388339161872897,-0.26571854948997503
-1.2451651096343999,4.612464904785161,7.678268909454349,-0.30168220400810203,-0.28931254148483304,-0.125070974230766
-1.2388839721679699,4.657031059265139,7.674978733062741,-0.346426755189896,-0.280149817466736,0.15950748324394198
-1.17846512794495,4.7700920104980495,7.84098052978516,-0.28908345103263894,-0.155766054987907,0.487074345350266
-1.2559328079223602,5.03838729858398,8.09790992736816,-0.166150450706482,0.0494022704660892,0.7120952010154721
-1.6426727771759,5.27557563781738,9.05025386810303,-0.274346768856049,-0.35062631964683505,0.597026824951172
-1.6061822175979599,5.10987281799316,10.157531738281198,-0.14301460981369,-0.756916105747223,0.314891755580902
-0.644267499446869,4.635794639587401,9.718748092651369,0.546021103858948,0.26266431808471696,0.38093963265419
-0.14117653667926802,4.41386032104492,9.08644485473633,0.6876612901687621,0.9268843531608578,0.585497081279755
-0.6158527135849,4.373182296752931,9.26889801025391,0.38513919711113,0.430570960044861,0.35574218630790705
-0.925424158573151,4.227220535278319,9.20967483520508,0.45011806488037104,-0.00038177953683771204,-0.0657424330711365
-0.5632106065750121,4.13210582733154,8.734400749206541,0.588780403137207,0.0942231863737106,-0.154009863734245
0.00478564528748393,4.170091629028319,8.316554069519041,0.43591588735580394,0.348488360643387,-0.0131332157179713
0.373878538608551,4.14855623245239,8.13021278381348,0.281447887420654,0.35872006416320795,-0.0597103200852871
0.618245542049408,3.99182629585266,8.07248592376709,0.339631080627441,0.11170869320631,-0.27961534261703497
0.8718847632408141,3.7965121269226096,8.228917121887209,0.365668445825577,-0.28366219997406,-0.488983243703842
1.13001048564911,3.6083765029907204,8.44606590270996,0.274957627058029,-0.541897892951965,-0.715607583522797
1.43419802188873,3.5856447219848597,8.46700286865234,0.0366508364677429,-0.495397120714188,-0.865952372550964
1.54307150840759,3.72412943840027,8.75444030761719,-0.464396625757217,-0.6130616068840029,-1.00820338726044
1.48025989532471,3.86560487747192,8.84327411651611,-0.860531091690063,-0.5961869359016421,-1.1910758018493701
1.62023997306824,4.07318258285522,8.13140964508057,-0.8056311607360841,-0.17844375967979398,-1.13579416275024
1.46470654010773,4.405784606933589,7.89960479736328,-0.6468108892440799,-0.324741661548615,-0.967276632785797
0.965204834938049,4.60917472839355,8.42213726043701,-0.46859619021415705,-1.12434077262878,-1.00659990310669
0.660119950771332,4.539782524108889,8.94227695465088,-0.371395140886307,-1.70976150035858,-1.12090468406677
0.7331010103225709,4.4288158416748,9.01645469665527,-0.451263397932053,-1.37440633773804,-1.03126287460327
0.8916255235672,4.41176652908325,8.79362297058105,-0.6065713167190551,-0.5938199162483221,-0.8071582913398739
0.785743117332458,4.485944271087651,8.51545715332031,-0.53563666343689,-0.0213796533644199,-0.658111572265625
0.456730008125305,4.66720056533813,8.25882720947266,-0.18859909474849698,0.108272679150105,-0.543348610401154
0.143868461251259,4.915156841278081,8.21934604644775,0.241361021995544,-0.21532365679740897,-0.45027077198028603
0.061914287507534006,5.084149837493901,8.332705497741701,0.6275691986083979,-0.403617322444916,-0.395218163728714
0.10438688844442401,5.24985265731812,8.79751110076904,0.5175403356552121,-0.441337138414383,-0.302674829959869
0.186041966080666,5.2932229042053205,9.92363357543945,-0.0688730254769325,-0.74889874458313,-0.34818294644355796
0.756730139255524,4.86072015762329,10.434202194213901,-0.127361655235291,-0.5757235288620001,-0.46172416210174605
1.56430780887604,4.2490549087524405,9.60807991027832,0.443398743867874,0.375976473093033,-0.45042350888252297
1.52901363372803,3.8404803276062,9.16720294952393,0.609320163726807,0.56732439994812,-0.572516620159149
0.871585667133331,3.4648072719573997,9.39332485198975,0.34749573469162004,-0.008170082233846191,-0.962084412574768
0.7438687682151791,3.05892467498779,9.13430118560791,0.102851405739784,-0.284960240125656,-1.22940647602081
1.0974082946777302,2.79900431632996,8.51246643066406,-0.0384070202708244,-0.111403271555901,-1.17885887622833
1.39980125427246,2.72512578964233,7.9953179359436,-0.0885728523135185,0.0512348152697086,-0.9930085539817809
1.36301159858704,2.7493531703948997,7.8493556976318395,-0.0952921733260155,-0.194554850459099,-0.9683456420898441
1.09441721439362,2.80079889297485,8.12213706970215,-0.0655133649706841,-0.7855495810508729,-1.18137860298157
0.92273223400116,2.8857440948486297,8.69701290130615,-0.0610847249627113,-1.3494379520416298,-1.49023818969727
1.1246266365051298,3.05892467498779,9.39422130584717,-0.164241552352905,-1.6778447628021202,-1.63890314102173
1.55862486362457,3.2638101577758802,9.86321449279785,-0.0743706524372101,-1.49222350120544,-1.74373984336853
1.71475648880005,3.39362072944641,10.2505531311035,-0.15683503448963199,-1.45305287837982,-2.11376047134399
1.67856502532959,3.45344138145447,10.404890060424801,-0.498833149671555,-1.5621654987335198,-2.44308352470398
1.96630203723907,3.44596362113953,9.71127033233643,-0.450041711330414,-1.04286897182465,-2.3511509895324703
2.11226415634155,3.3589248657226602,8.831010818481449,-0.19211146235466,-0.631768763065338,-2.1556799411773704
1.5206388235092199,3.23180603981018,8.570492744445799,-0.22769331932067896,-0.8723662495613101,-2.25173568725586
0.7061817646026608,3.1692936420440696,8.60219764709473,-0.542203307151794,-1.15411949157715,-2.44629049301147
0.308375030755997,3.25812721252441,8.483154296875,-0.782418966293335,-0.968498349189758,-2.3871910572052
0.219242379069328,3.52133750915527,8.30100059509277,-0.797995567321777,-0.49967306852340704,-2.0264856815338104
0.0248255357146263,3.85453820228577,8.18704223632812,-0.601760923862457,-0.14652699232101402,-1.5723972320556598
-0.39242291450500505,4.1617169380188,8.129016876220701,-0.27220880985260004,-0.0639098957180977,-1.2191747426986699
-0.902094125747681,4.46710062026978,8.12123966217041,-0.0174091476947069,-0.09704835712909698,-0.9628480076789859
-1.31934261322021,4.7398824691772505,8.300402641296388,0.0450499840080738,-0.16401249170303303,-0.751494824886322
-1.42402863502502,4.82871627807617,8.70299530029297,0.0641389638185501,-0.120795048773289,-0.561368644237518
-1.1865409612655602,4.7066822052002,9.46630573272705,0.125681817531586,-0.0776539593935013,-0.315731674432755
-0.665802896022797,4.27358102798462,10.5388879776001,0.29778802394866905,-0.5938962697982789,-0.316037088632584
0.28055846691131603,3.5593237876892103,10.7198457717896,0.914667427539825,-0.0809372588992119,-0.432938009500504
1.02053880691528,3.0783662796020494,10.2065849304199,0.8987854123115541,0.719807147979736,-0.338791161775589
1.01605236530304,2.9327032566070597,9.87906742095947,0.297406256198883,0.46813806891441295,-0.371624201536179
0.8428717851638791,2.8692934513092,9.23838901519775,0.240673825144768,0.18027630448341395,-0.571371257305145
0.7770691514015201,2.9638099670410196,8.49721240997314,0.40522080659866294,-0.0468825288116932,-0.7356128096580509
0.713360249996185,3.29342126846313,7.96271562576294,0.409878522157669,-0.204633831977844,-0.755083560943604
0.543469846248627,3.63469767570496,7.74855804443359,0.27740100026130704,-0.370478868484497,-0.8135721683502201
0.402293294668198,3.81804752349854,7.78474950790405,0.12659808993339502,-0.507995843887329,-0.978271901607513
0.508474826812744,3.89461803436279,7.91216707229614,-0.0726144686341286,-0.53716379404068,-1.08852982521057
0.651745080947876,3.92841649055481,8.37458038330078,-0.35642936825752297,-0.6720846891403199,-1.1277767419815101
0.8347960114479059,3.90119814872742,8.8642110824585,-0.455615699291229,-0.7738671302795409,-1.09112596511841
1.03160572052002,3.8910286426544203,9.21805000305176,-0.33512607216834994,-0.869159281253815,-0.979111790657043
0.954736232757568,3.92034077644348,9.78634548187256,-0.31313556432724,-1.3800566196441697,-1.08585739135742
0.781555712223053,3.91914439201355,10.2137632369995,-0.30160582065582303,-1.67280519008636,-1.3970839977264398
0.9882357716560359,3.9176487922668497,9.84018421173096,0.00923906452953815,-1.00575995445251,-1.44404292106628
1.13688981533051,3.9604206085205096,9.27338409423828,0.252508997917175,-0.502269148826599,-1.3142378330230702
0.821336388587952,3.91047048568726,9.07747173309326,0.263886004686356,-0.7947123050689701,-1.4845879077911397
0.504586458206177,3.73998188972473,8.8504524230957,0.25884652137756303,-1.03905117511749,-1.72778141498566
0.456730008125305,3.6993038654327406,8.410472869873049,0.17905460298061396,-0.893593192100525,-1.6613517999649001
0.448056042194366,3.87547540664673,8.01565647125244,0.0174091476947069,-0.579846739768982,-1.3381372690200801
0.32961133122444203,4.1078782081603995,7.84696292877197,-0.11972606182098401,-0.404915362596512,-1.03256094455719
0.22731815278530101,4.31665182113647,7.69202756881714,-0.0972010716795921,-0.26411509513854997,-0.773103535175323
0.0912263616919518,4.51136779785156,7.42911624908447,-0.0888782739639282,-0.109723441302776,-0.519754648208618
-0.287736922502518,4.7898325920105,7.2439713478088406,-0.375823765993118,-0.0295497365295887,-0.20997874438762698
-0.716949462890625,5.32971334457397,7.44257593154907,-0.6623111367225649,-0.057877779006958,0.20119781792163802
-0.8712865710258481,5.680860042572019,8.03749084472656,-0.381474107503891,-0.0697892978787422,0.38231402635574296
-0.875174880027771,5.58873653411865,8.883952140808109,0.15355172753333998,-0.109341658651829,0.161492750048637
-0.680458962917328,5.3243293762207005,10.154541015625,0.253501623868942,-0.4332434237003329,-0.158285796642303
0.0104685993865132,4.8601217269897505,10.566704750061001,0.33703497052192705,0.0969720035791397,-0.303743809461594
0.752841830253601,4.4853458404541,9.84975528717041,0.33405709266662603,1.0573766231536899,-0.0609320141375065
0.857527792453766,4.32562494277954,9.33440113067627,0.100331664085388,0.965062320232391,0.1608055382967
0.6083751320838929,4.1009988784789995,8.96201801300049,0.26426780223846397,0.35574218630790705,0.052151083946228
0.510568559169769,3.8126637935638397,8.51276588439941,0.502956390380859,-0.14690876007080098,-0.16592139005660997
0.5886343717575071,3.64396977424622,8.1427755355835,0.34734302759170504,-0.303362011909485,-0.28999972343444796
0.730708241462708,3.61017107963562,7.94028282165527,0.0298551600426435,-0.17035003006458302,-0.339631080627441
0.86470627784729,3.58534574508667,7.92532777786255,-0.20555010437965401,-0.00458135455846786,-0.411481976509094
0.9475577473640441,3.52253413200378,7.955237865448001,-0.278775423765182,0.182872399687767,-0.497687816619873
0.8997012972831729,3.5159537792205797,8.07069206237793,-0.35719293355941795,0.258006602525711,-0.530978977680206
0.671485841274261,3.59282326698303,8.45593643188477,-0.418812155723572,0.0834570080041885,-0.546937346458435
0.46031925082206704,3.6984064579009996,8.95454025268555,-0.264496862888336,-0.18623206019401603,-0.550067961215973
0.429810762405396,3.8958144187927206,9.3852481842041,-0.0175618585199118,-0.483714669942856,-0.554878354072571
0.26530420780181896,4.0178484916687,9.9948205947876,0.0208451636135578,-0.7592067718505859,-0.6905628442764279
0.381954312324524,4.05104875564575,9.80219841003418,0.11835165321826899,-0.317487865686417,-0.6474217176437379
0.67028945684433,4.2514476776123,9.02213764190674,0.21081866323947898,0.18203248083591503,-0.39002597332000705
0.514456868171692,4.53350162506104,8.70897674560547,0.24426254630088798,-0.0647498071193695,-0.34161633253097495
0.161216422915459,4.67168712615967,8.64706325531006,0.309470504522324,-0.6636092066764829,-0.651926755905151
0.0541376136243343,4.68843698501587,8.44875812530518,0.21341475844383198,-0.8684720993041991,-0.9093988537788391
0.177068874239922,4.7270212173461905,8.10508823394775,-0.13576079905033098,-0.525939464569092,-0.9090170860290531
0.25842484831810003,4.827818870544429,7.81406164169312,-0.5109737515449521,-0.0939941182732582,-0.741186797618866
0.18634106218814803,4.93609380722046,7.62084102630615,-0.567248046398163,0.209520608186722,-0.49692425131797796
-0.0822532773017883,4.98335218429565,7.56700229644775,-0.37215870618820207,0.214025601744652,-0.338333010673523
-0.459122836589813,5.03419971466064,7.68484878540039,-0.0345128700137138,0.145381644368172,-0.171877145767212
-0.82372921705246,5.11346197128296,8.00429058074951,0.26220619678497303,0.13973131775856,0.05757235363125799
-1.26849508285522,5.228915691375731,8.48016357421875,0.363454133272171,0.16813570261001598,0.136677071452141
-1.83290219306946,5.30847692489624,9.87547779083252,0.139960378408432,-0.23082390427589397,-0.0211505871266127
-1.6483557224273702,4.92472791671753,10.721639633178699,0.214025601744652,-0.160729184746742,-0.12499462068080901
-0.7585247755050659,4.3513479232788095,9.68255710601807,0.49432814121246293,0.7527165412902829,0.140036731958389
-0.714556634426117,4.15005159378052,9.2557373046875,0.28488388657569896,0.7712710499763492,0.38223767280578597
-1.1398808956146202,3.9738802909851096,9.135796546936039,0.240368396043777,0.187453746795654,0.210513234138489
-1.12133646011353,3.7082769870758097,8.66859817504883,0.36704283952712996,-0.16867019236087802,-0.0650552362203598
-0.6924230456352231,3.61017107963562,8.31475925445557,0.19982340931892398,-0.201350525021553,-0.107967250049114
-0.162412837147713,3.57188606262207,8.120043754577638,0.0248920265585184,-0.00267245667055249,-0.0846023485064507
0.28564319014549294,3.42891478538513,8.09192752838135,0.0741415843367577,0.07857023179531099,-0.23028941452503196
0.620638370513916,3.2694931030273398,8.237292289733888,0.22257746756076802,0.0482569336891174,-0.454928487539291
0.750449001789093,3.2294132709503196,8.52682304382324,0.17294612526893602,-0.19867807626724202,-0.751113057136536
0.753440022468567,3.39631271362305,8.72871780395508,0.0326803289353848,-0.38742986321449296,-0.9561286568641659
0.6783652305603031,3.7525441646575897,8.77477931976318,0.006337540224194529,-0.4453839957714079,-1.0140064954757702
0.17527425289154097,4.105186462402339,9.22851848602295,-0.25388339161872897,-0.94918030500412,-1.31523048877716
-0.188434779644012,4.31605386734009,9.281759262084961,-0.521816253662109,-1.03515708446503,-1.4845879077911397
0.0664008259773254,4.63998222351074,8.46969509124756,-0.33741676807403603,-0.33466795086860696,-0.9814024567604059
-0.128614217042923,5.091328144073491,8.29232692718506,-0.11858072131872198,-0.41911756992340105,-0.481347650289536
-1.07377910614014,5.15144824981689,8.91176891326904,0.0670404881238937,-1.1932901144027699,-0.621537089347839
-1.5825530290603602,4.88614368438721,9.175577163696289,0.22876229882240304,-1.34668910503387,-0.84678703546524
-1.3573286533355702,4.69142770767212,8.82054233551025,0.11873343586921699,-0.6405497193336489,-0.71301144361496
-1.2526426315307602,4.60229539871216,8.41794967651367,-0.165997743606567,0.0765849724411964,-0.49547347426414506
-1.34745824337006,4.56969308853149,7.82961463928223,-0.214560106396675,0.515173316001892,-0.28633466362953197
-1.47128677368164,4.592424869537349,7.30050182342529,-0.119802415370941,0.514409720897675,-0.0910162404179573
-1.6393826007843,4.6519465446472195,7.17069149017334,-0.0690257400274277,0.16958646476268802,0.044897273182869006
-1.7691932916641202,4.672584533691411,7.41595554351807,-0.00671932008117437,-0.21494187414646104,0.0206924509257078
-1.7395820617675801,4.73330211639404,7.8433732986450195,0.257243037223816,-0.314815402030945,-0.173556983470917
-1.5807584524154699,5.0395836830139205,8.67906665802002,0.225478991866112,-0.0859003961086273,-0.0554343871772289
-1.3411771059036297,5.11346197128296,9.98674488067627,-0.27816456556320196,-0.366890132427216,-0.114762932062149
-0.661615431308746,4.65134811401367,10.1961164474487,-0.0794864967465401,0.40919131040573103,-0.20043425261974301
-0.0583250522613525,4.2921257019042995,9.46899700164795,0.22723518311977398,1.44228672981262,0.21379654109478
-0.375074952840805,4.0959143638610795,9.301798820495609,0.12453648447990401,1.01370108127594,0.47768256068229703
-0.9454640746116642,3.6335012912750204,9.267401695251461,0.20990239083766896,0.0552816763520241,0.23090025782585102
-0.8590233325958249,3.2036905288696302,8.91924667358398,0.352000743150711,-0.35146623849868797,0.0517693050205708
-0.24137598276138297,3.14476704597473,8.44666385650635,0.25258535146713296,-0.14866495132446303,0.162561729550362
0.157328084111214,3.21714997291565,8.07428073883057,0.0568851493299007,0.130568608641624,0.185086712241173
0.215354040265083,3.27667140960693,7.89661359786987,-0.0500131174921989,0.137364283204079,-0.00969719979912043
0.0864407196640968,3.3750762939453103,7.92801952362061,-0.0701710805296898,-0.0833042934536934,-0.29259583353996305
-0.107078813016415,3.55872559547424,8.34945583343506,-0.0885728523135185,-0.44729289412498496,-0.49913856387138394
-0.148355007171631,3.82672166824341,8.90159893035889,0.0230594836175442,-0.64833801984787,-0.574654579162598
-0.133698970079422,4.18624305725098,9.39541816711426,0.233190938830376,-0.646658182144165,-0.635433852672577
-0.35563325881958,4.45394039154053,9.960124015808109,-0.0262664314359426,-1.06783735752106,-1.10128128528595
-0.318843603134155,4.59122848510742,9.64965534210205,-0.128125205636024,-0.38727715611457797,-1.2822448015213002
-0.136091783642769,4.88554573059082,8.71944618225098,-0.10208784788846999,0.41232189536094704,-0.778601169586182
-0.6161518096923829,5.2372903823852495,8.33240699768066,-0.189897134900093,-0.0556634552776814,-0.42339351773262
-1.4135600328445401,5.23489761352539,8.26451015472412,0.0743706524372101,-0.898632645606995,-0.56816428899765
-1.7336000204086297,4.957330226898191,8.17029285430908,0.319014966487885,-1.35073602199554,-0.6540647149086
-1.49970161914825,4.72223567962646,8.02074146270752,0.251210927963257,-1.0142354965209999,-0.41323816776275607
-1.20687997341156,4.64058017730713,7.920841217041019,0.00335966004058719,-0.343601584434509,-0.0985754728317261
-1.12043917179108,4.67647266387939,7.83410120010376,-0.11896250396966901,0.17202985286712602,0.110486999154091
-1.2370892763137802,4.7691946029663095,7.67318391799927,-0.0574960000813007,0.339172929525375,0.23349636793136605
