ax,ay,az,wx,wy,wz
2.1807587146759,3.65623307228088,9.51864814758301,-0.346808522939682,-0.32672691345214805,-0.42996010184288
2.57228446006775,3.6388850212097203,9.616455078125,-0.643909394741058,0.145381644368172,-0.49776417016983004
3.0098717212677,3.6526436805725098,8.66171932220459,-0.45042350888252297,0.843656420707703,-0.19600561261177105
2.8187451362609903,3.8042888641357404,8.50319480895996,-0.307714313268661,0.578548729419708,0.18264332413673398
2.29411864280701,3.8796627521514906,8.479565620422362,0.0487914234399796,-0.0468825288116932,0.33497336506843606
1.7545372247695903,3.8898322582244904,8.17926597595215,0.39666894078254705,-0.507766783237457,0.286487370729446
1.26789689064026,4.02921438217163,8.07368278503418,0.299009740352631,-0.8062420487403871,0.24128466844558702
1.0151549577713002,4.2918267250061,8.0356969833374,0.0345892272889614,-0.6556681990623471,0.240139335393906
0.998704373836517,4.58345174789429,7.99023294448853,-0.13766969740390803,-0.198525354266167,0.30985227227211
1.01276218891144,4.863411903381349,8.052745819091799,-0.140800297260284,0.20661908388137804,0.42950198054313704
0.9032905697822571,5.09461832046509,8.19721221923828,0.0332911759614944,0.37292224168777505,0.521587193012238
0.7932206988334659,5.28783893585205,8.28096103668213,0.38552096486091597,0.517311275005341,0.6710920929908749
0.626919507980347,5.58305358886719,8.35513877868652,0.68743222951889,0.625202178955078,0.897181928157806
0.21744775772094702,5.82801866531372,9.22014427185059,0.600615561008453,0.27411770820617704,0.906497359275818
0.12592229247093198,5.45892572402954,10.1635141372681,0.46653458476066606,-0.23296187818050398,0.7129350900650021
0.6801598072051999,4.69172716140747,9.62154006958008,0.6502469182014471,0.444544106721878,0.82991236448288
0.93050891160965,4.21076965332031,9.35444068908691,0.472337633371353,0.918790638446808,1.19504630565643
0.631106972694397,3.6720855236053502,9.64815998077393,0.34383064508438105,0.7207233905792241,1.20100212097168
0.565304338932037,2.9685955047607404,9.286844253540039,0.475239157676697,0.6073349118232729,0.954754292964935
0.8428717851638791,2.5399811267852797,8.889336585998539,0.35253521800041204,0.6080984473228449,0.816168308258057
1.1946166753768899,2.34107780456543,8.42034244537354,0.142251059412956,0.778982937335968,0.660860359668732
1.5164513587951698,2.27677083015442,7.9956169128417995,-0.0161874517798424,0.813114047050476,0.387200802564621
1.91395902633667,2.4161527156829803,7.9752779006958,-0.151413768529892,0.526703059673309,0.0607029460370541
2.4269204139709504,2.7478578090667702,8.27826881408691,-0.209596961736679,-0.0139731308445334,-0.32924667000770597
2.9907290935516397,3.11395955085754,8.617152214050291,-0.0564270168542862,-0.280607968568802,-0.8019660711288449
3.4025938510894798,3.4220354557037402,9.04187870025635,-0.477071702480316,-0.62054443359375,-1.2604832649231
3.6864423751831095,3.8359937667846697,9.158528327941891,-1.0660811662674001,-0.397737920284271,-1.12602055072784
3.70139741897583,4.26670169830322,8.759824752807619,-0.9717816114425659,0.10521844029426598,-0.6141305565834051
3.1612179279327406,4.5023946762085005,8.44247627258301,-0.42339351773262,0.0317640565335751,-0.17745113372802698
2.12333106994629,4.4946184158325195,8.43021297454834,0.0655897259712219,-0.47294849157333396,-0.117282673716545
0.916750192642212,4.41027116775513,8.554041862487791,0.175465881824493,-0.9153546094894409,-0.3402419090271
0.121136642992496,4.40010166168213,8.55583667755127,-0.0495549850165844,-0.844114542007446,-0.451492488384247
-0.153738856315613,4.49431896209717,8.41555690765381,-0.338333010673523,-0.296337276697159,-0.30275118350982694
-0.25064817070961,4.661218643188481,8.31027317047119,-0.417361378669739,0.270376265048981,0.0392469353973866
-0.40019959211349504,4.82482767105103,8.33240699768066,-0.197609081864357,0.5178457498550421,0.440649926662445
-0.467497736215591,4.8753762245178205,8.49003410339355,0.2746522128582,0.446758419275284,0.7621083259582521
-0.364905446767807,4.79402017593384,8.69701290130615,0.741492211818695,0.46180051565170294,0.9197832345962521
-0.246460735797882,4.73928451538086,9.25483989715576,0.5605286955833441,0.266329407691956,0.947118699550629
0.0819541737437248,4.39352130889893,10.1614208221436,0.227158829569817,-0.22089764475822402,0.790054559707642
0.7875377535820011,3.74297285079956,9.96251678466797,0.51188999414444,0.702321648597717,0.7809682488441471
1.22721886634827,3.39780807495117,9.65713310241699,0.30901235342025796,1.13304531574249,1.24169981479645
1.12492573261261,3.14207530021667,9.84945583343506,0.133011996746063,0.880001842975616,1.4484715461731001
0.94456672668457,2.73379993438721,9.50159931182861,0.41415444016456604,1.08517014980316,1.31263434886932
0.7785646915435791,2.48584365844727,9.02512836456299,0.228685945272446,0.956205010414124,1.15854823589325
0.7331010103225709,2.48255348205566,8.479565620422362,-0.11231953650713,0.875344097614288,1.0207257270813
0.9248259663581851,2.55643200874329,7.97647428512573,-0.26029729843139604,0.8748096227645871,0.7982246279716491
1.15573334693909,2.6333012580871604,8.233104705810549,-0.23739051818847698,0.376052856445312,0.376892745494843
1.49521505832672,2.6362924575805695,8.88634490966797,0.09292513877153401,-0.298704296350479,-0.16958646476268802
2.18494606018066,2.74696040153503,9.08135986328125,0.32069480419158897,-0.45798271894455,-0.6026771664619449
2.4900310039520295,3.01076912879944,9.67119121551514,-0.21471281349659,-0.48050773143768294,-0.93131297826767
2.47806692123413,3.2524442672729506,9.84676456451416,-0.814412117004395,-0.0761268362402916,-1.0472213029861501
2.73320174217224,3.5967116355896,9.23629570007324,-0.8523610234260559,0.382924884557724,-0.693693399429321
2.70388960838318,3.87128782272339,9.09960556030273,-0.490281283855438,0.0742179453372955,-0.24189551174640697
2.30638194084167,3.88833689689636,9.04307460784912,0.150039359927177,-0.44400960206985496,-0.0946049690246582
1.8092730045318601,3.8225340843200697,8.74546718597412,0.5625903010368349,-0.6639909744262701,-0.17157171666622198
1.3689936399459801,3.85693097114563,8.492725372314451,0.3800997138023379,-0.7051467895507809,-0.295802772045135
1.09411811828613,3.96131777763367,8.24536800384521,0.00832279399037361,-0.5220453143119811,-0.37643462419509904
1.01365947723389,4.08484745025635,7.957331657409671,-0.194554850459099,-0.22876229882240304,-0.35795649886131303
1.04536437988281,4.2212381362914995,7.84995365142822,-0.263733297586441,-0.0503185428678989,-0.266023993492126
1.1419745683670002,4.343571186065669,7.99591588973999,-0.160271048545837,-0.10911259055137598,-0.12491826713085198
1.32203447818756,4.412065982818599,8.18255615234375,0.0908635333180428,-0.11942064017057401,-0.0135913519188762
1.4973087310791,4.520939350128169,8.95753192901611,0.10392039269208901,-0.331766426563263,0.0332148186862469
1.6232310533523602,4.3920259475708,10.280463218688999,-0.0745997205376625,-0.9295567870140079,-0.22059221565723397
2.12213468551636,3.85124802589417,9.79172897338867,0.33443886041641196,-0.193409517407417,-0.5694623589515689
2.73858547210693,3.73998188972473,8.72632503509521,0.5012765526771551,0.683309018611908,-0.42346987128257796
2.45862531661987,3.93021130561829,9.48066234588623,0.0387887991964817,0.16179816424846602,-0.21715620160102803
1.7715860605239901,3.5943186283111603,9.57547760009766,0.073225311934948,-0.32466530799865695,-0.5184566378593439
1.63130688667297,3.2294132709503196,8.76550769805908,0.406366139650345,-0.28182965517044106,-0.7798228859901429
2.01804685592651,3.20787787437439,8.30788040161133,0.370478868484497,-0.225631698966026,-0.6846070885658261
2.28215456008911,3.2285158634185804,8.13051223754883,0.183177828788757,-0.26220619678497303,-0.673382759094238
2.21366000175476,3.17318201065063,8.10987377166748,0.0838387832045555,-0.421255528926849,-0.929862260818481
1.96241366863251,3.1040892601013197,8.36590576171875,-0.0388651564717293,-0.733474850654602,-1.3514232635498
1.73808658123016,3.0299117565155,8.690432548522951,-0.251058220863342,-0.8813762664794921,-1.7438925504684402
1.60707950592041,2.98773813247681,8.87617588043213,-0.525099575519562,-0.632837772369385,-1.8081078529357901
1.17966151237488,2.90339112281799,9.41246700286865,-1.00385105609894,-0.890844345092773,-1.88133323192596
0.798604547977448,2.82712006568909,9.72144031524658,-1.3479108810424798,-1.11548340320587,-1.95005357265472
1.2708879709243799,3.08464741706848,8.92074203491211,-1.1839747428894,-0.24617144465446497,-1.47832667827606
1.81734883785248,3.5760734081268297,8.39880752563477,-0.910544216632843,0.0643680319190025,-0.91985958814621
1.8547366857528702,3.8820555210113503,8.79242706298828,-0.59832489490509,-0.597943127155304,-0.8807653784751891
2.0171494483947803,4.01336193084717,9.12802028656006,-0.245331525802612,-1.13373255729675,-1.0327899456024199
2.5579273700714102,4.11326217651367,8.84028339385986,-0.0899472609162331,-0.895425736904144,-0.9865183234214779
2.9180471897125204,4.15573453903198,8.50229740142822,-0.22944949567318,-0.455997467041016,-0.8677848577499391
2.76580381393433,4.05254411697388,8.31924629211426,-0.35772743821144104,-0.276713818311691,-0.8621345758438109
2.39461731910706,3.8135612010955797,8.12333393096924,-0.283280402421951,-0.29992601275444003,-0.908329844474792
2.06171584129333,3.62063980102539,8.062914848327638,-0.186995610594749,-0.329781174659729,-0.8156337738037109
1.93519532680511,3.5662031173706095,8.159824371337889,-0.151719182729721,-0.181421637535095,-0.5560237169265749
1.9229321479797399,3.5554354190826403,8.72782039642334,-0.20555010437965401,-0.222653821110725,-0.371395140886307
2.0240287780761697,3.37029075622559,9.84646511077881,-0.13950224220752697,-0.96620762348175,-0.4760027229785921
2.56480669975281,3.04576420783997,10.3283195495605,0.377885371446609,-0.7746306657791141,-0.530978977680206
3.18544507026672,2.7505495548248304,10.2161560058594,0.53380411863327,-0.26678752899169894,-0.29969692230224604
3.24855589866638,2.31894421577454,10.2092771530151,0.437672048807144,-0.45912808179855297,-0.670633912086487
3.18185591697693,1.9513468742370599,9.78873825073242,0.35138988494872997,-0.441947996616364,-1.26773715019226
3.265305519104,1.95882439613342,9.02931594848633,0.0888019204139709,-0.136524364352226,-1.48138093948364
3.1914272308349596,2.1858434677124,8.462815284729,-0.18890450894832603,-0.1270562261343,-1.47076749801636
2.96440815925598,2.47238397598267,8.13798999786377,-0.185544848442078,-0.31092125177383395,-1.4049487113952601
2.9081768989563,2.88544511795044,8.24716281890869,-0.10369132459163699,-0.656737148761749,-1.21390616893768
3.0020952224731405,3.20698046684265,8.39521789550781,0.0559688806533813,-0.7985301017761229,-1.1028847694397
2.97756862640381,3.32213521003723,8.33180809020996,0.132935628294945,-0.71453857421875,-1.1935955286026
2.74546480178833,3.4121651649475098,8.40897655487061,-0.146450623869896,-0.693922460079193,-1.3792930841445903
2.44247364997864,3.48544526100159,8.50917625427246,-0.5600705742836,-0.6527666449546811,-1.56865572929382
2.2387847900390603,3.51475739479065,8.6506519317627,-0.833882868289948,-0.639557063579559,-1.70617270469666
2.11555433273315,3.45942330360413,8.8411808013916,-0.8712972402572629,-0.6506286859512329,-1.7997087240219098
1.96480643749237,3.30628275871277,8.87378311157227,-0.7195017337799069,-0.5091412067413329,-1.8224627971649199
1.6546368598938,3.1103703975677504,9.021240234375,-0.822276771068573,-0.74049961566925,-1.83926105499268
1.4533406496048,3.00269341468811,9.12682342529297,-0.969490945339203,-0.962771654129028,-1.74274718761444
1.6268203258514398,2.9470601081848105,8.690732002258299,-0.6506286859512329,-0.5244123935699461,-1.5643035173416102
1.80538463592529,2.9560332298278795,8.37458038330078,-0.37765631079673795,-0.24983653426170302,-1.5068838596344
1.98125720024109,3.1172497272491495,8.574680328369139,-0.395141810178757,-0.48356196284294106,-1.48703134059906
2.33389949798584,3.32572436332703,8.64885711669922,-0.36314868927002003,-0.519372880458832,-1.52406394481659
2.6392834186554,3.58534574508667,8.48793983459473,-0.36200335621833796,-0.331613719463348,-1.5814836025238002
2.7693932056427,3.9221353530883802,8.325527191162111,-0.44003909826278703,-0.20119781792163802,-1.5427711009979201
2.67667126655579,4.17697095870972,8.15653419494629,-0.39636352658271795,-0.21173493564128898,-1.4819917678833001
2.3676979541778596,4.26610374450684,7.9923267364502,-0.271445244550705,-0.325428873300552,-1.43174958229065
1.9558334350585902,4.26580476760864,8.05394172668457,-0.309241414070129,-0.526473999023438,-1.3087402582168601
1.56370961666107,4.29451847076416,8.33390235900879,-0.511202812194824,-0.580381274223328,-1.08570468425751
1.3031910657882702,4.34387063980103,8.57617568969727,-0.599088430404663,-0.255563229322433,-0.796392142772675
1.09770739078522,4.3752760887146005,8.97757148742676,-0.5889331102371221,0.0742179453372955,-0.48791423439979603
0.8745766878128051,4.25742959976196,9.991230964660641,-0.496695190668106,-0.321076601743698,-0.38842248916626
0.9903294444084171,3.89312243461609,10.8376922607422,0.008170082233846191,-0.6882721781730649,-0.40048673748970004
1.48953211307526,3.4226336479187,10.6669044494629,0.614206910133362,-0.21341475844383198,-0.269689053297043
1.74137663841248,3.02063941955566,10.1210412979126,0.769591212272644,0.354825913906097,-0.188064604997635
1.5921243429183998,2.7382864952087402,9.84616565704346,0.582213819026947,0.154086217284203,-0.277706444263458
1.4503495693206798,2.5190439224243195,9.38345432281494,0.579083204269409,0.0529146455228329,-0.470352381467819
1.4745769500732402,2.43978190422058,8.857930183410641,0.513875246047974,0.0798682793974876,-0.5368583798408509
1.5717853307724,2.4903302192687997,8.555238723754881,0.36963894963264504,0.0324512608349323,-0.5241833329200739
1.7327027320861799,2.52861523628235,8.23130989074707,0.35719293355941795,0.15622419118881198,-0.5176930427551271
1.83948242664337,2.5331017971038796,8.01236629486084,0.28511294722557107,0.231969252228737,-0.5012765526771551
1.73060894012451,2.54446768760681,7.99621486663818,0.0934596285223961,0.148359522223473,-0.512959003448486
1.44885408878326,2.5893332958221404,8.23699283599854,-0.10506572574377099,-0.101095221936703,-0.604738771915436
1.30349016189575,2.6545376777648904,8.76520824432373,-0.271216183900833,-0.43782478570938105,-0.703314244747162
1.49671053886414,2.79481673240662,9.141180992126461,-0.288548976182938,-0.493640929460526,-0.7151494026184079
1.65344047546387,2.9548368453979506,9.41964530944824,-0.36864632368087796,-0.5975613594055179,-0.8885536789894101
1.56640148162842,3.15463757514954,9.83719253540039,-0.647498071193695,-0.8591566681861881,-1.1619842052459701
1.78504574298859,3.46839642524719,9.38016414642334,-0.54289048910141,-0.18149799108505202,-1.09150767326355
2.02163600921631,3.81505656242371,8.67876815795898,-0.305881768465042,0.19081340730190302,-0.8795437216758729
1.79551434516907,4.06391000747681,8.65154933929443,-0.137746050953865,-0.297558963298798,-0.9227611422538761
1.5355939865112298,4.15693092346191,8.72931575775146,-0.00114533863961697,-0.769133031368256,-1.1122001409530602
1.54157602787018,4.17248439788818,8.58036327362061,-0.0716981962323189,-0.688730299472809,-1.19008314609528
1.69232380390167,4.24755907058716,8.3294153213501,-0.260450005531311,-0.222195684909821,-1.03034663200378
1.69441747665405,4.40937376022339,8.20110034942627,-0.29496288299560497,0.0912453085184097,-0.778295755386353
1.4096716642379798,4.53080987930298,8.22801971435547,-0.062993623316288,0.0539836250245571,-0.647192656993866
1.04685986042023,4.5957150459289595,8.33958530426025,0.15714046359062198,-0.118886150419712,-0.5402944087982179
0.7872386574745179,4.6669015884399405,8.49481964111328,0.125605463981628,-0.182948753237724,-0.326345145702362
0.656829833984375,4.6941199302673295,8.65274620056152,0.0132095720618963,-0.088191069662571,-0.0852895453572273
0.576072037220001,4.73031139373779,8.717052459716799,-0.0827698037028313,-0.0222195684909821,0.082693450152874
0.343669146299362,4.683053016662599,9.54885768890381,-0.22021043300628698,-0.613443374633789,0.0135149955749512
0.48364928364753706,4.27148771286011,10.081260681152301,0.0027488125488162,-0.786618530750275,-0.12125317752361302
1.09501540660858,3.7929229736328103,9.284749984741211,0.31802234053611794,0.0775775983929634,0.0610083714127541
1.16799652576447,3.47736954689026,9.01226711273193,0.17157171666622198,0.211887642741203,0.18783552944660198
0.818644464015961,3.1070802211761497,9.297910690307619,0.16737215220928198,-0.200892388820648,-0.0070247435942292205
0.8458628058433529,2.78345084190369,9.04995441436768,0.341310918331146,0.005268557462841271,-0.0558161698281765
1.06660068035126,2.71046996116638,8.656932830810549,0.182872399687767,0.343067079782486,0.152635455131531
1.13958179950714,2.7355945110321005,8.35124969482422,0.0604738779366016,0.526092231273651,0.23387815058231398
1.1282159090042099,2.7628128528595,8.14845848083496,0.114304795861244,0.415376126766205,0.187453746795654
1.1108678579330402,2.8217360973358194,8.26690292358398,0.129270553588867,0.009086352773010729,0.0239757541567087
1.18953192234039,2.87557458877563,8.70807933807373,0.037490751594305004,-0.458746284246445,-0.18760646879673
1.54037952423096,2.9117660522460898,9.11575698852539,-0.0156529601663351,-0.632074177265167,-0.38468107581138594
2.00518536567688,2.96111798286438,9.427422523498539,-0.0870457366108894,-0.5496861934661871,-0.5634302496910101
2.13888430595398,3.0759735107421897,10.06032371521,-0.429196566343307,-0.756381630897522,-0.8027296662330631
2.3279173374176003,3.25453782081604,9.76600646972656,-0.598248541355133,-0.31947311758995095,-0.8050203323364259
2.5923242568969704,3.55483722686768,8.630312919616701,-0.5026509165763849,0.39315655827522294,-0.507766783237457
2.31714963912964,3.8949170112609903,8.466404914855959,-0.294581085443497,0.0832279399037361,-0.348793774843216
1.9420746564865101,4.04327201843262,8.59292507171631,0.130034103989601,-0.605044186115265,-0.49295374751091
1.8577276468276998,4.08484745025635,8.55493927001953,0.35268792510032704,-0.8712972402572629,-0.648719787597656
1.97318136692047,4.1282172203064,8.47119045257568,0.13759334385395097,-0.5680115818977359,-0.661471247673035
2.10269284248352,4.2215371131897,8.35154914855957,-0.28786176443100003,-0.0783411636948586,-0.541210651397705
2.0312073230743404,4.418646335601809,8.11436080932617,-0.446071207523346,0.27763009071350103,-0.29496288299560497
1.4925230741500901,4.7039899826049805,7.8314094543457005,-0.315426260232925,0.446376621723175,-0.0692548081278801
0.6930212378501889,4.92442893981934,7.8993058204650906,-0.13247749209404,0.10025530308485002,0.0326039716601372
0.297009110450745,4.92532634735107,8.08415126800537,0.23219831287860895,-0.0503949001431465,0.122933007776737
0.42412781715393105,4.76680183410645,8.45473957061768,0.35986539721489,0.10728005319833803,0.26854372024536105
0.7447660565376278,4.39920425415039,9.610772132873539,-0.018096350133419,-0.36795911192894,0.202114090323448
1.32113718986511,3.76899480819702,10.064809799194302,-0.15790401399135598,-0.234030857682228,0.0697129443287849
1.90917336940765,3.35862565040588,9.31256675720215,-0.11491563916206401,0.82655268907547,0.33848574757576005
1.76829588413239,3.34875535964966,9.30538845062256,-0.22723518311977398,0.7846332788467411,0.676513314247131
1.2616157531738301,3.22193574905396,9.42413234710693,0.18585027754306802,0.173556983470917,0.622911512851715
1.14915311336517,2.98265337944031,9.047262191772461,0.7146149277687069,-0.0956739485263824,0.46531289815902704
1.3025928735733001,2.9255247116088903,8.83938598632812,0.6460473537445071,-0.0578014217317104,0.46309858560562106
1.4039887189865101,2.9177482128143297,8.64287567138672,0.31825143098831205,0.18424680829048198,0.415070712566376
1.42432773113251,2.8761727809906,8.51156902313232,0.0869693756103516,0.30931776762008695,0.29954421520233193
1.43449711799622,2.8510482311248797,8.59471988677979,0.0383306667208672,0.14767232537269598,0.15736952424049402
1.4715858697891202,2.83310198783875,8.84566688537598,0.0398577824234962,-0.252738058567047,-0.0837624296545982
1.66510546207428,2.9063823223114,9.00628566741943,0.0475697293877602,-0.24288813769817397,-0.237925007939339
1.81226408481598,3.05324172973633,9.31795024871826,-0.24685864150524103,-0.32955208420753496,-0.509293913841248
1.9474585056304898,3.2374889850616495,9.60209846496582,-0.565186440944672,-0.49944397807121294,-0.821818649768829
2.39342093467712,3.47856593132019,9.17408180236816,-0.28938889503479,0.312066584825516,-0.7038487792015079
2.65932321548462,3.73519611358643,8.90279579162598,-0.0859003961086273,0.40651884675025896,-0.43919917941093395
2.52652168273926,3.89850640296936,8.93958568572998,0.08780929446220402,-0.12362021207809401,-0.350549966096878
2.33389949798584,3.9690945148468,8.65932559967041,0.321000248193741,-0.369791656732559,-0.387735307216644
2.18225431442261,4.03908443450928,8.22203731536865,0.2916032075881961,-0.26541313529014604,-0.395599961280823
1.95702981948853,4.1685962677002,7.95463991165161,0.0249683819711208,-0.10269869863986998,-0.366508364677429
1.6372889280319198,4.3513479232788095,7.73659372329712,-0.0998735278844833,0.0264954995363951,-0.29839888215065
1.22213411331177,4.55354166030884,7.63609504699707,-0.0131332157179713,0.0865876004099846,-0.187453746795654
0.646361231803894,4.830809593200679,7.68694257736206,0.0613901503384113,0.16172181069850902,-0.0411558337509632
0.0532403029501438,5.11944389343262,7.96301460266113,0.0938414111733437,0.19234053790569297,0.0752105712890625
-0.23838496208190899,5.22532653808594,8.356334686279299,0.22616620361804998,0.297558963298798,0.14652699232101402
-0.212063908576965,5.06560564041138,9.21475982666016,0.0952158197760582,-0.107050985097885,0.17103722691535903
0.20578274130821203,4.5693941116333,9.99392318725586,-0.0112243182957172,-0.25510507822036704,0.193104088306427
0.850648462772369,3.9723846912383998,9.72712326049805,0.0539072714745998,0.7184327244758609,0.440802663564682
1.01455676555634,3.6705899238586404,9.33828926086426,-0.141258433461189,1.0493592023849498,0.796697556972504
0.631106972694397,3.5150563716888397,9.227621078491211,-0.101400643587112,0.450041711330414,0.7421030402183529
0.43549370765685996,3.3433713912963903,8.91954517364502,0.17157171666622198,0.111403271555901,0.6548282504081729
0.558125853538513,3.2584261894226096,8.52742195129395,0.18852274119853998,0.119802415370941,0.707208395004272
0.686441004276276,3.27517604827881,8.19511890411377,0.13377554714679699,0.273965001106262,0.67361181974411
0.748056173324585,3.35653185844421,7.98843860626221,0.145381644368172,0.33260634541511497,0.526703059673309
0.7962117195129391,3.4528431892395,8.0416784286499,0.121405892074108,0.150039359927177,0.32069480419158897
0.9074779748916629,3.51356101036072,8.36141967773438,0.05757235363125799,-0.168212071061134,0.0516929477453232
1.1398808956146202,3.52881526947021,8.78195858001709,-0.035352785140276004,-0.38552096486091597,-0.24319356679916396
1.4584254026413,3.5261232852935804,9.20907688140869,-0.318785905838013,-0.482034832239151,-0.527466595172882
1.71744847297668,3.55752897262573,9.73848915100098,-0.705223143100739,-0.504636168479919,-0.783411622047424
2.0865414142608603,3.56351113319397,9.45882797241211,-0.614741384983063,0.116366401314735,-0.8509865999221801
2.31924343109131,3.62153697013855,8.735597610473631,-0.326345145702362,0.524336040019989,-0.734391093254089
2.05304193496704,3.7151563167572004,8.66889762878418,-0.189668074250221,0.0155002493411303,-0.75462543964386
1.7578272819518999,3.65144729614258,8.76730251312256,-0.0387887991964817,-0.558696150779724,-0.8758022785186771
1.75513541698456,3.50040054321289,8.735597610473631,-0.0364217683672905,-0.71789824962616,-0.8315158486366271
1.78803670406342,3.41635251045227,8.61565685272217,-0.153704434633255,-0.386208176612854,-0.6755207180976871
1.5942181348800701,3.4941191673278795,8.470592498779299,-0.33466795086860696,-0.0325276181101799,-0.489899516105652
1.1865409612655602,3.7316069602966295,8.40149974822998,-0.342914372682571,-0.0716218426823616,-0.329170316457748
0.7588238716125492,3.9867415428161603,8.37158870697021,-0.0968192890286446,-0.23716144263744396,-0.276332020759583
0.456730008125305,4.18235492706299,8.43559741973877,0.061695571988821,-0.32046574354171803,-0.242811784148216
0.324825674295425,4.31934404373169,8.58395195007324,0.0142021989449859,-0.147901386022568,-0.13270656764507302
0.308973222970963,4.40608358383179,8.68983459472656,-0.0859767496585846,0.12071868777275098,0.024510245770216
0.18664017319679302,4.3989052772522,9.3885383605957,-0.274346768856049,-0.136218935251236,0.0748287886381149
0.13698910176754,4.048057556152339,10.5308122634888,-0.30359110236167897,-0.6473453640937811,0.0114533863961697
0.773779034614563,3.4085757732391397,10.097711563110401,0.0737598091363907,-0.0551289655268192,0.21310934424400305
1.18534445762634,3.0020952224731405,9.36879825592041,0.141487494111061,0.49341186881065396,0.5799994468688959
0.704686284065247,2.78404903411865,9.54078197479248,0.00374143943190575,0.0513875260949135,0.568469703197479
0.35802608728408797,2.52562427520752,9.506086349487301,0.132935628294945,-0.31359371542930603,0.369944363832474
0.628714144229889,2.3075783252716096,9.11725234985352,0.194707557559013,-0.163248926401138,0.374143958091736
0.9655039310455319,2.21156620979309,8.73529815673828,0.0423011742532253,0.23922306299209603,0.45027077198028603
1.0450652837753298,2.2178475856781,8.452944755554201,-0.117893524467945,0.489441365003586,0.422706305980682
0.9915258884429928,2.3009979724884,8.35902690887451,-0.0988809019327164,0.34505233168602006,0.294581085443497
0.986740231513977,2.4278175830841096,8.51545715332031,0.0692548081278801,0.0180199947208166,0.103614963591099
1.10697960853577,2.52233409881592,8.94766139984131,0.16584503650665303,-0.34268531203270003,-0.163554355502129
1.40757787227631,2.5920250415802,9.32004451751709,0.0817771777510643,-0.371624201536179,-0.45469942688942
1.7156537771225,2.69431829452515,9.88654518127441,-0.27572119235992404,-0.29419931769371005,-0.6947624087333679
1.86400878429413,2.737389087677,10.6776723861694,-0.692013561725616,-0.490663051605225,-1.00805068016052
2.3356940746307404,2.72422862052917,10.138090133667001,-0.504788875579834,0.166379526257515,-1.02179479598999
2.72482681274414,2.7858438491821302,9.06012344360352,-0.15477342903614003,0.792268872261047,-0.6981220841407779
2.20707988739014,2.81605315208435,9.00807952880859,-0.0924670025706291,0.27472856640815696,-0.518303871154785
1.59840548038483,2.70867514610291,9.08853816986084,0.00649025198072195,-0.47241398692131,-0.45622655749321
1.47607243061066,2.64077877998352,8.81725215911865,0.251974493265152,-0.6405497193336489,-0.290763288736343
1.42432773113251,2.7146573066711404,8.45174884796143,0.312142938375473,-0.328941255807877,-0.108349032700062
1.15423786640167,2.99043011665344,8.33121013641357,0.0806318372488022,-0.11193776130676299,-0.00374143943190575
0.8177471160888671,3.38046026229858,8.33150959014893,-0.0244338903576136,-0.118198946118355,-0.0129805039614439
0.6493522524833679,3.7022948265075697,8.330014228820799,0.135684445500374,-0.14332003891468,-0.0610083714127541
0.7109674215316769,3.89910459518433,8.57916641235352,0.0568851493299007,-0.162943512201309,-0.00297788041643798
0.863509893417358,4.06391000747681,8.847761154174801,-0.0828461572527885,0.0306187197566032,0.0291679557412863
1.00917291641235,4.2589254379272505,9.21386241912842,0.0375671051442623,0.114992000162601,0.12285665422678
1.08155584335327,4.09920406341553,10.1656074523926,-0.456837385892868,-0.62627112865448,0.15675868093967402
