ax,ay,az,wx,wy,wz
9.72368335723877,-1.4047363996505702,-0.537338256835938,-0.0178672820329666,1.03462255001068,1.22719216346741
10.6592769622803,-1.34700953960419,-1.7259728908538798,0.351542592048645,0.717287421226501,0.7473716139793399
8.80753135681152,-1.22736847400665,-1.96884441375732,0.17164808511734,0.501352906227112,0.549915254116058
7.445865631103519,-0.961765170097351,-1.59122705459595,-0.374907493591309,0.355054974555969,0.8767185211181641
7.94282531738281,-0.782453000545502,-1.19057881832123,-0.681552827358246,0.534033238887787,1.28552806377411
9.31735229492188,-0.6166005134582521,-0.96789675951004,-0.540752530097961,0.40850409865379295,1.61141502857208
10.9782705307007,-0.173030987381935,-0.900449097156525,-0.0184781290590763,0.0439810007810593,1.83147275447845
11.626425743103,0.50548380613327,-1.42761778831482,0.53296422958374,-0.0415376126766205,1.6483713388443
12.6586303710938,0.525224566459656,-1.5361921787261998,0.636044681072235,-0.378267168998718,1.12197375297546
13.8976631164551,0.40588253736496,-1.3778171539306598,0.48256933689117404,-0.46913069486618,0.717287421226501
14.3703956604004,0.336640238761902,-0.756281495094299,0.383153945207596,-0.49127390980720503,0.234718054533005
11.896217346191401,0.58893346786499,-0.0100199449807405,0.5163186192512511,-0.138967752456665,-0.273048728704453
10.928619384765598,-0.206380948424339,0.0305084884166718,0.775317907333374,-0.338562101125717,-0.7939487099647521
10.786545753478999,-0.659820854663849,-0.0951147004961967,1.1702306270599399,-0.7020162343978879,-0.9443698525428771
10.149007797241199,-0.546610414981842,0.450448870658875,1.56376898288727,-0.8425110578536991,-1.03065204620361
9.15478992462158,-0.420089930295944,0.44282174110412603,1.6663913726806598,-0.884964942932129,-1.27163124084473
8.91012382507324,-0.49381875991821295,0.254087865352631,1.46496438980103,-0.602753520011902,-1.47351634502411
9.627970695495609,-1.29137647151947,-0.0996012389659882,1.28583347797394,-0.43431240320205705,-1.83926105499268
9.79292583465576,-2.3808584213256805,-0.882951557636261,1.15847182273865,-0.505934238433838,-2.0128943920135502
9.70005416870117,-2.5634608268737797,-1.2469596862793,0.581526577472687,-0.934443593025208,-1.7668757438659701
10.2990074157715,-2.84805727005005,-0.972233772277832,-0.303438365459442,-1.09830331802368,-1.48145735263824
10.8133153915405,-3.0465118885040297,0.00403788825497031,-0.941162943840027,-0.532353401184082,-0.9419264793395999
10.4940223693848,-2.63494634628296,0.27876383066177396,-1.33424317836761,0.27427041530609103,-0.24250635504722604
7.80598545074463,-2.27228426933289,0.759422063827515,-1.52940881252289,1.07417488098145,0.398119688034058
7.23245620727539,-1.8698413372039802,1.1307582855224598,-1.27697622776031,1.27468550205231,1.1406044960022
10.620991706848098,-1.7581263780593899,0.913011372089386,-0.414612591266632,0.834111928939819,1.52818715572357
10.8602743148804,-1.46276235580444,0.396909445524216,0.5372401475906371,0.280989736318588,1.10135757923126
9.01226711273193,-0.9931709766387941,0.0161515530198812,0.8286142945289608,-0.20478653907775898,0.848008692264557
7.85085105895996,-0.6684948205947879,-0.220887437462807,0.472643077373505,-0.21517094969749498,1.07218968868256
8.02178859710693,-0.622732102870941,-0.21909281611442602,-0.0609320141375065,0.251210927963257,1.3247749805450402
8.94930648803711,-0.7166503667831421,-0.11754741519689599,-0.454928487539291,0.6012263894081121,1.6469969749450701
9.82762145996094,-0.508624374866486,0.0865902677178383,-0.49570256471633894,0.700794517993927,1.9327207803726203
11.0621690750122,-0.15329019725322698,0.26306092739105197,-0.207229927182198,0.5975613594055179,1.8899613618850701
12.8624687194824,-0.22298115491867102,0.0605683214962482,0.19379130005836498,0.20157960057258603,1.3910518884658798
14.2097768783569,-0.0716351270675659,-0.36909288167953497,0.471726804971695,0.0221432130783796,0.863890707492828
15.1366968154907,-0.42532423138618497,-1.29795670509338,0.323901772499084,0.154544353485107,0.14141114056110402
12.1295175552368,0.145812630653381,-1.78280246257782,-0.21547636389732397,0.547166407108307,-0.296871781349182
10.1437730789185,-0.27427729964256303,-1.23604249954224,-0.6094728708267211,0.572516620159149,-0.666739761829376
10.321141242981,-0.7885845899581909,-0.5069792866706849,-0.343906998634338,-0.178520113229752,-0.8477032780647281
11.4782209396362,-0.860369265079498,0.156131684780121,0.45844087004661604,-0.7640172243118291,-0.9660549163818359
10.598857879638699,-1.31590294837952,1.1665010452270501,1.06638658046722,-1.17160499095917,-1.5776658058166497
8.9614200592041,-0.772732138633728,0.555284380912781,1.1389247179031399,-0.9191724061965941,-1.64546978473663
8.99312496185303,-1.07048904895782,0.56560343503952,0.883590579032898,-0.47676628828048706,-1.59507489204407
9.682257652282711,-1.3832010030746498,0.611814856529236,0.779288411140442,-0.5642701387405401,-1.69006168842316
9.82597637176514,-1.8046369552612298,0.272632241249084,0.734391093254089,-0.659867763519287,-1.82964026927948
9.81161975860596,-2.1477079391479497,-0.238534510135651,0.28480753302574197,-0.7021689414978031,-1.7233527898788499
11.2120189666748,-2.5040888786315896,-0.239132717251778,-0.40804597735404996,-0.723701298236847,-1.42312145233154
11.4821090698242,-2.89172625541687,-0.0388833694159985,-0.850910246372223,-0.454775780439377,-1.00499641895294
9.62542819976807,-2.44277286529541,0.4199403822422029,-1.1201411485672,-0.145228937268257,-0.266329407691956
7.36062145233154,-1.2466605901718102,1.0622637271881101,-0.9568922519683841,0.5031854510307311,0.526550352573395
8.555088996887209,-1.08723878860474,0.750897645950317,-0.41110020875930803,0.882979691028595,0.780510067939758
10.081560134887699,-1.3564313650131201,-0.15463615953922302,0.136218935251236,0.551595091819763,0.646887242794037
8.9499044418335,-1.2699905633926398,-0.6028417348861689,0.26113721728324896,0.219294160604477,0.597714066505432
7.464410305023191,-1.02786684036255,-0.923330426216125,-0.0849077701568604,0.31199023127555797,0.970178186893463
7.30573606491089,-0.8461619019508358,-0.8433204293251041,-0.5557183027267459,0.463327646255493,1.5255910158157302
8.18046283721924,-0.47362932562828103,-0.8306085467338559,-0.6290199756622309,0.431563585996628,1.98830783367157
9.7449197769165,-0.15837495028972598,-0.524327278137207,-0.428967475891113,0.20784078538417802,2.18240451812744
11.286944389343299,0.29805597662925704,-0.421884536743164,-0.0589467622339725,-0.0841442123055458,2.09994006156921
13.0583810806274,0.7021439075469971,-0.513709127902985,0.28725093603134194,-0.231052979826927,1.86170971393585
14.357085227966301,0.930658459663391,-1.0562816858291602,0.378878027200699,-0.187071979045868,1.2281084060668899
15.354145050048801,0.7114160656929019,-1.3570295572280902,-0.0505476109683514,-0.0624591335654259,0.503948986530304
14.8612232208252,0.6610172390937811,-0.933799028396606,-0.477987974882126,0.0102316914126277,-0.0751342102885246
10.8611717224121,0.87667042016983,-0.071186475455761,-0.390942245721817,0.4161396920681,-0.492495596408844
10.325478553772,-0.24870400130748702,0.31615167856216403,0.0768140405416489,-0.0328330397605896,-0.937497854232788
10.777123451232901,-0.841077148914337,0.7428218722343441,0.9234483242034909,-0.903443098068237,-1.1129636764526398
10.4899845123291,-0.662213683128357,1.17472636699677,1.60973525047302,-1.24994623661041,-1.0782980918884302
9.58878803253174,-0.396012157201767,0.745065152645111,1.6723470687866202,-0.986976444721222,-1.3655490875244098
8.41286563873291,-0.586690187454224,-0.0647557601332664,1.2161968946456898,-0.451263397932053,-1.72961401939392
9.2288179397583,-1.20194470882416,-0.144466668367386,0.7737907767295841,-0.284960240125656,-1.90233111381531
10.294671058654801,-1.8559330701828,-0.23703899979591395,0.563659310340881,-0.405449867248535,-2.03274703025818
10.157531738281198,-2.1166012287139897,0.00403788825497031,0.330773800611496,-0.567935228347778,-2.05992960929871
10.762168884277301,-2.39701008796692,0.168095797300339,0.192722305655479,-0.657729804515839,-1.8673601150512702
10.2771730422974,-2.3600709438323997,-0.224177569150925,0.0717745497822762,-0.42133188247680703,-1.39212095737457
9.74402236938477,-2.4684956073761,-0.486341208219528,-0.37185326218604997,-0.12659808993339502,-0.484554588794708
7.529614448547361,-1.4862419366836501,0.13235300779342699,-0.6768187880516049,0.432938009500504,0.6719319820404049
6.97477912902832,-0.6245267391204828,0.4911268353462221,-0.499214917421341,0.8177717924118041,1.3715047836303702
9.53255653381348,-0.877717256546021,-0.511166751384735,0.0775775983929634,0.7901309132575992,1.4142640829086297
10.935199737548801,-0.72681987285614,-1.62098777294159,0.339172929525375,0.394607335329056,1.40678119659424
10.7077322006226,-0.692273497581482,-0.972682416439056,0.114992000162601,0.0406213440001011,1.2722420692443799
9.038289070129391,-0.27397820353508,-0.8443672657012941,-0.273965001106262,0.3512371778488161,1.3634110689163201
8.59307479858398,0.269940316677094,-1.01949203014374,-0.5757235288620001,0.823574841022491,1.6013361215591397
9.6515998840332,0.8639585375785831,-1.6129120588302601,-0.718509078025818,0.8322793841362,1.5451381206512498
10.436744689941401,1.39292192459106,-1.51346027851105,-0.738667070865631,0.31947311758995095,1.25009894371033
10.409525871276902,1.78190505504608,-1.03100740909576,-0.612832486629486,0.12919420003891,0.89275324344635
12.0726871490479,1.45408844947815,-0.8063812255859379,-0.428356647491455,-0.0853659063577652,0.525786757469177
13.6254796981812,1.2569797039031998,-0.43325045704841597,-0.194554850459099,-0.32787227630615196,0.13026317954063402
14.861821174621598,0.8466105461120609,-0.325573444366455,-0.0563506595790386,-0.401021212339401,-0.36803546547889704
13.5940742492676,0.772582590579987,-0.34262228012085,-0.15988926589489003,-0.0288625322282314,-0.782800734043121
10.748858451843299,0.919442117214203,-0.40363925695419295,-0.311684817075729,0.414001733064651,-1.03905117511749
11.4070339202881,-0.176470667123795,0.26321050524711603,-0.26220619678497303,0.23502348363399497,-1.4171656370163
10.8390378952026,-0.477368116378784,0.9771689176559449,0.0262664314359426,-0.0757450610399246,-1.65234184265137
9.934401512146,-0.7609176039695741,1.4819049835205098,0.24601873755454998,-0.00015271181473508502,-1.60668098926544
8.83265590667725,-0.637388110160828,1.41759788990021,0.333369880914688,0.304354637861252,-1.54987215995789
7.60603523254395,-0.46061834692955,0.988086223602295,0.27701923251152,0.679872989654541,-1.3431004285812398
7.916204929351809,-0.508175730705261,1.11954188346863,0.21303297579288502,0.6623111367225649,-1.0999832153320301
8.1020975112915,-0.45179483294487,1.20314109325409,0.25747212767601,0.675444364547729,-0.911231398582458
7.64925575256348,-0.30433714389801,1.31171548366547,0.282058715820312,0.49997848272323603,-0.521968960762024
9.38061237335205,-0.5198407173156739,1.5396318435668899,0.31199023127555797,0.0548235401511192,-0.29839888215065
9.807881355285641,-0.7206882834434509,1.41176533699036,0.352000743150711,-0.187071979045868,-0.14935214817523998
10.1898355484009,-1.0843973159790001,1.0407283306121802,0.0682621821761131,-0.444085955619812,0.261595338582993
9.58145999908447,-0.805932581424713,1.1032408475875901,-0.38422292470932,-0.371395140886307,0.827850759029388
8.01685333251953,-0.191425815224648,1.46216416358948,-0.575265407562256,0.0926960706710815,1.2574291229248
9.89192867279053,-0.518793880939484,1.46186506748199,-0.361468851566315,0.0232121963053942,1.3678396940231299
10.744222640991199,-0.37193438410759,1.24441730976105,0.12629267573356598,-0.109341658651829,1.2658282518386799
10.158429145813,-0.10199406743049601,0.47123649716377297,0.4109475016593929,-0.027640838176012,1.2216944694519
9.32303524017334,0.259770810604095,-0.14536397159099598,0.339172929525375,0.23334364593029,1.23192620277405
8.93764114379883,0.472133815288544,-0.563958406448364,0.17760384082794198,0.299467861652374,1.22551226615906
9.548707962036131,0.5482555031776429,-0.550199627876282,0.0752869248390198,0.0332911759614944,1.21665501594543
9.8306131362915,0.716500818729401,-0.250199526548386,0.0917797982692719,-0.15790401399135598,1.1144908666610702
10.2839031219482,0.7275676131248471,0.164357006549835,0.184628590941429,-0.212269425392151,1.1042591333389298
11.8719892501831,0.606131911277771,0.44700917601585405,0.489441365003586,-0.39705070853233293,0.993084907531738
12.6074838638306,0.726969420909882,0.559471845626831,0.7647807598114009,-0.530215442180634,0.636350154876709
14.1792688369751,-0.18783657252788502,0.8992526531219479,0.79287976026535,-0.710262656211853,0.181116208434105
13.5234861373901,-0.0100199449807405,0.8699405789375309,0.8832851648330692,-0.5386145710945129,-0.0839914977550507
10.9428262710571,0.12143574655056,0.7766205072402951,0.9649859666824341,-0.11865708231926,-0.33291175961494396
10.7573823928833,-0.462861627340317,0.810119986534119,1.1245697736740101,-0.439810037612915,-0.608709275722504
10.8058376312256,-0.556181728839874,1.07108724117279,1.5640743970871,-0.978577315807343,-0.835486352443695
10.0864953994751,-0.439082950353622,0.898504912853241,1.7525207996368402,-1.1155598163604699,-1.11342179775238
8.98325443267822,-0.40752759575843794,0.24541386961936998,1.23192620277405,-0.837777018547058,-1.4280081987381001
8.320591926574709,-0.611067056655884,0.36595231294632,0.45767730474471996,-0.27793550491333,-1.59324240684509
8.62777042388916,-0.999601662158966,0.882652461528778,0.13850961625576,0.125987246632576,-1.56285274028778
9.29402256011963,-1.4670994281768799,0.9041878581047059,0.173633337020874,0.0792574286460876,-1.4852751493454
9.43175888061523,-1.53843545913696,0.6930212378501889,0.232885524630547,-0.0930014923214912,-1.23375880718231
10.6003541946411,-1.8436698913574199,0.494716078042984,0.108272679150105,-0.280837029218674,-1.03202641010284
10.856834411621099,-1.99531495571136,0.43025943636894204,-0.132095724344254,-0.311532109975815,-0.7557707428932191
10.76575756073,-2.25269293785095,0.245114773511887,-0.444849520921707,-0.124001994729042,-0.3613161444664
8.23699283599854,-1.55473649501801,0.8008478283882141,-0.714080452919006,0.29488649964332597,0.22922043502330802
7.54471921920776,-1.05852496623993,0.9738788008689879,-0.490052223205566,0.684759795665741,0.770125687122345
9.21161937713623,-1.21824586391449,0.7362416386604309,0.014965757727623001,0.532811522483826,1.06791377067566
10.5447206497192,-1.08589279651642,0.557079017162323,0.610236406326294,0.21410197019577,1.25697100162506
10.0841026306152,-0.615254521369934,-0.112612217664719,1.0392038822174101,0.317793279886246,1.26292669773102
8.92747211456299,-0.166002064943314,-0.8111668825149541,0.885575830936432,0.38727715611457797,1.27438008785248
8.95214748382568,0.131007045507431,-1.1093723773956299,0.512806296348572,0.207688063383102,1.2540694475174
9.11156940460205,0.262014091014862,-1.4974583387374898,0.21288026869297003,0.0487150698900223,1.1493091583252
8.82742214202881,0.487388074398041,-1.2661023139953602,-0.11942064017057401,-0.224791795015335,1.2267340421676598
9.67552757263184,0.859322428703308,-0.657278478145599,-0.16645587980747198,-0.160652831196785,1.3771551847457901
12.665808677673303,1.02936244010925,-0.480807811021805,0.20234315097332,-0.48272204399108903,1.15663933753967
15.1390895843506,1.1501998901367199,-0.549601435661316,0.651163160800934,-0.629172682762146,0.545792043209076
15.688391685485803,0.574277460575104,-0.907777070999146,0.6502469182014471,-0.285418391227722,-0.233190938830376
12.3246812820435,0.45643091201782204,-0.892672419548035,0.370936989784241,0.176229432225227,-0.538156449794769
9.30374336242676,0.32168510556221,-0.184546440839767,0.520289123058319,0.140494868159294,-0.743095695972443
10.1662063598633,-0.962213814258575,0.530309319496155,1.18366932868958,-0.534033238887787,-0.926655292510986
10.852796554565401,-1.20777726173401,0.988983511924744,2.02450060844421,-1.20917212963104,-0.7682931423187259
10.556535720825199,-0.660867691040039,0.9019445776939391,2.44140386581421,-1.09387469291687,-0.7085828185081479
9.438638687133789,-0.31435707211494396,-0.192771777510643,2.00648045539856,-0.6540647149086,-1.09983050823212
8.49048233032227,-0.39107695221900896,-0.536291360855103,1.06211066246033,-0.34894648194313,-1.48558056354523
8.686694145202638,-1.10398852825165,0.0978066250681877,0.47386476397514293,-0.236092463135719,-1.6641006469726598
9.38539791107178,-1.60797679424286,0.319740921258926,0.32298550009727506,-0.296719044446945,-1.59568572044373
9.57353401184082,-1.9342980384826698,0.11650054901838301,0.18279604613781,-0.222653821110725,-1.42785549163818
10.2831554412842,-2.29576373100281,-0.11874382197856899,-0.211811289191246,-0.30466008186340304,-1.09250032901764
10.924431800842301,-2.42557430267334,-0.11171490699052801,-0.62459135055542,-0.0752869248390198,-0.49677154421806297
9.50025367736816,-2.19137692451477,0.10289137065410602,-0.994153916835785,0.30740886926651,0.144770801067352
7.6715388298034695,-1.4355440139770501,0.6411269307136539,-0.9515473246574399,0.649788796901703,0.8090671896934509
8.66964530944824,-1.25742828845978,0.180807664990425,-0.4669927358627321,0.7571451663970951,1.10975670814514
10.2109222412109,-1.2460623979568501,-0.324526578187943,0.0849077701568604,0.36223241686821,1.1268604993820202
9.9502534866333,-0.898953557014465,-0.37178480625152605,0.47676628828048706,0.130415886640549,1.2282611131668102
9.099306106567381,-0.547507703304291,-0.560219585895538,0.533880531787872,0.283891260623932,1.2326897382736202
8.49452018737793,-0.206979155540466,-0.564407050609589,0.337493121623993,0.38162681460380604,1.3340904712677
9.08539772033691,-0.0225822646170855,-0.842423141002655,0.261900752782822,0.39705070853233293,1.40464329719543
9.80922698974609,0.251695036888123,-1.6719847917556798,0.0348182953894138,0.504254400730133,1.4382398128509502
9.959675788879391,0.5167001485824579,-0.48305106163024897,-0.0554343871772289,-0.123391143977642,1.34676551818848
11.379666328430199,0.691974401473999,-0.41889351606369,0.47844612598419206,-0.0222959257662296,1.1670236587524399
13.074233055114698,0.581306338310242,-1.0878369808197,0.853811740875244,-0.36635565757751504,0.713469624519348
14.122439384460401,0.6032904386520389,-1.2469596862793,0.765544354915619,-0.406976997852325,0.3089359998703
15.0041942596436,0.249003112316132,-1.27687001228333,0.351084470748901,-0.361621588468552,-0.338714808225632
11.778968811035199,0.25244277715683,-0.427417933940887,0.053449135273695,0.0523801520466805,-0.6510104537010191
10.890483856201199,-0.39032918214797996,0.33708888292312605,0.24693500995635997,-0.16401249170303303,-0.858087658882141
10.899905204772901,-0.8708378672599789,0.9459127187728879,0.99736088514328,-0.728129923343658,-1.0653176307678198
10.466056823730499,-1.04715895652771,1.19865465164185,1.6561596393585198,-1.14915645122528,-1.16809272766113
9.68494987487793,-0.7842476367950441,0.840927600860596,1.76015639305115,-1.0642486810684202,-1.26888251304626
8.77567672729492,-0.8412266969680791,0.141924291849136,1.26216316223145,-0.6306998133659361,-1.49459052085876
9.23524856567383,-0.9693922996520999,0.235094830393791,0.6522321701049799,-0.28129515051841697,-1.60790264606476
9.2288179397583,-1.40039944648743,0.406032085418701,0.512042701244354,-0.0364981219172478,-1.7955855131149299
8.826823234558109,-2.02821636199951,0.0937687382102013,0.328330397605896,-0.125834539532661,-1.81940853595734
9.46316528320312,-2.30533504486084,-0.058025948703289004,0.0778830274939537,-0.22524993121624,-1.43671274185181
9.92213821411133,-2.33674097061157,-0.328414916992188,-0.23456534743309,-0.12476555258035699,-0.7779139876365658
11.003843307495101,-2.62163639068604,-0.6590731143951422,-0.863432586193085,0.0248920265585184,-0.197609081864357
9.36924648284912,-1.85832583904266,-0.0254237409681082,-1.3073658943176298,0.621689796447754,0.5482354164123541
8.41525840759277,-0.9542875885963441,0.8657531142234799,-1.1048699617385902,0.996291875839233,1.04714488983154
9.66446113586426,-1.04461658000946,0.334696054458618,-0.35215345025062605,0.9736905097961429,1.0456178188324
9.59013366699219,-0.9927222728729251,-0.284446805715561,0.248003989458084,0.51341712474823,1.0702043771743799
8.74920654296875,-0.8044370412826541,-0.406032085418701,0.36818817257881203,0.00855186209082603,1.1293038129806499
7.64447021484375,-0.538235545158386,-0.48798626661300704,0.15484978258609802,0.169357404112816,1.41731834411621
8.07562732696533,-0.42921257019042997,-0.45598226785659796,-0.171495363116264,0.303743809461594,1.7044165134429898
9.603593826293949,-0.19127626717090598,-0.265902429819107,-0.18203248083591503,0.160347402095795,1.8552958965301498
11.360374450683599,0.265902429819107,-0.10543374717235601,0.155002489686012,-0.0500894747674465,1.7575602531433099
11.703893661499,0.6177968978881839,-0.43070808053016707,0.458135455846786,0.0821589529514313,1.4327422380447399
12.447612762451199,0.585194706916809,-0.840927600860596,0.42377528548240706,0.0856713280081749,1.10685527324677
13.7778730392456,0.384197592735291,-0.861565709114075,0.33703497052192705,-0.0361927002668381,0.7056813240051271
14.7753810882568,0.0405284352600574,-0.585194706916809,0.27549210190773,-0.300231426954269,0.167524859309196
13.4019002914429,0.265005111694336,-0.11350952088832902,0.30145311355590804,-0.11743538826703999,-0.226777046918869
10.5957174301147,0.365354120731354,0.32123643159866305,0.39949411153793296,-0.027640838176012,-0.660173177719116
10.531709671020499,-0.582502782344818,0.55573308467865,0.681552827358246,-0.45920443534851096,-1.0251544713974001
10.2158575057983,-0.842124044895172,0.948455095291138,1.1435060501098602,-1.05340611934662,-1.0937219858169598
10.3847007751465,-0.574576556682587,0.808474957942963,1.3728792667388898,-1.2412415742874099,-1.17099416255951
9.84736251831055,-0.53344988822937,0.34860435128212,0.96147358417511,-0.991710543632507,-1.49428510665894
9.36461067199707,-0.662213683128357,0.267547488212585,0.1806580722332,-0.602142691612244,-1.7997087240219098
9.60688400268555,-1.15453696250916,0.820738196372986,-0.27503398060798606,-0.28266957402229304,-1.94234156608582
9.97657489776611,-1.63011038303375,1.20478618144989,-0.28801447153091403,-0.229067727923393,-1.97486913204193
10.1252288818359,-2.0673987865448002,1.00094759464264,-0.200357899069786,-0.151184692978859,-1.9576127529144298
10.1312112808228,-2.42916369438171,0.722034215927124,-0.26526042819023105,-0.107661828398705,-1.65310537815094
9.27143955230713,-2.4937698841095,0.565902531147003,-0.37811446189880393,0.0775775983929634,-1.02683424949646
8.66082191467285,-2.6107189655304,0.36655050516128496,-0.5213581323623661,0.21959958970546697,-0.0644443854689598
7.45947504043579,-1.7223836183548,1.03863453865051,-0.406824260950089,0.370784282684326,1.0250016450882
7.74197769165039,-0.963858842849731,0.7843971848487851,0.0968192890286446,0.682774543762207,1.60897171497345
9.70095157623291,-1.1774183511733998,-0.185144647955894,0.540447115898132,0.6073349118232729,1.7033475637435902
10.823185920715302,-1.0381859540939302,-0.445513665676117,0.7142331600189209,0.0154238929972053,1.81345283985138
10.6205434799194,-0.883250653743744,-0.200099796056747,0.7808154821395871,-0.0412321910262108,1.7551169395446797
9.32931613922119,-0.50548380613327,-0.137138649821281,0.691326379776001,0.254570603370667,1.85773921012878
9.70424175262451,-0.0927218794822693,-0.39227336645126293,0.687050461769104,0.41583427786827104,1.9626522064209
10.4146108627319,0.17781662940979,-0.8718847632408141,0.8121214509010309,0.294122964143753,1.74183094501495
10.1522979736328,0.534795880317688,-1.0651051998138399,0.8380824327468871,-0.0369562581181526,1.5672813653945903
11.1937742233276,0.771685302257538,-0.715753078460693,0.8655705451965329,-0.29641363024711603,1.37089395523071
12.821192741394,0.7357929348945621,-1.2909277677536,0.9339854717254642,-0.338562101125717,0.6481089591979979
13.6531467437744,0.41470608115196206,-1.2756736278533898,0.48272204399108903,-0.445918500423431,0.0945286154747009
16.0437259674072,-0.265154659748077,-0.14506487548351302,-0.127667084336281,-0.83563905954361,-0.472184926271439
13.2815113067627,-0.11814561486244197,0.6913762092590329,-0.248920261859894,-0.0783411636948586,-1.05371153354645
9.73445129394531,-0.239132717251778,1.15244317054749,0.042606595903635004,0.339325666427612,-1.3519576787948602
10.284650802612301,-1.2409776449203502,1.4854942560195903,0.8220477104187008,-0.20967331528663602,-1.4567179679870599
10.2142124176025,-1.78265285491943,2.10269284248352,1.8279603719711297,-1.09647083282471,-1.4622156620025601
9.539286613464359,-1.7273188829422,2.15578365325928,2.57777547836304,-1.4973393678665199,-1.36722886562347
8.79018306732178,-1.32861483097076,1.17562365531921,2.69200396537781,-1.24780821800232,-1.3027844429016102
8.24192810058594,-1.06091773509979,0.0738784000277519,2.04068803787231,-0.7783721089363101,-1.2517787218093899
8.786594390869139,-1.12731862068176,0.160169571638107,1.1997040510177601,-0.662921965122223,-1.20153653621674
9.9705924987793,-1.3428221940994298,0.307477712631226,0.614054203033447,-0.6491779088974,-1.20107841491699
10.0848503112793,-1.5675979852676398,0.0824028328061104,-0.0760504826903343,-0.38239037990570096,-1.22566497325897
10.415358543396,-2.4426233768463104,0.28953152894973805,-0.8553388714790341,-0.0366508364677429,-1.20260548591614
11.4568347930908,-3.09706020355225,0.8964111804962159,-1.1279294490814198,0.162179946899414,-0.80601292848587
10.468449592590302,-2.9534909725189196,1.5577275753021202,-0.9274188280105591,0.308783292770386,-0.10414946079254199
6.80384159088135,-1.72014033794403,2.12377953529358,-0.2903051674366,0.882521569728851,0.880230903625488
8.3024959564209,-0.994666457176208,0.512213587760925,0.54777729511261,1.14915645122528,1.3860124349594098
11.506934165954599,-0.677168786525726,-1.5177973508834801,1.22978830337524,0.42438614368438704,1.02607071399689
10.635498046875,-0.46420758962631203,-2.52891445159912,1.61370575428009,0.0992626771330833,0.6290199756622309
8.499156951904299,-0.453888535499573,-2.55972194671631,1.26063597202301,0.39567631483078003,0.806776523590088
8.19422149658203,-0.17093726992607097,-2.02507567405701,0.647803544998169,0.5126535892486571,1.29423260688782
9.221639633178711,0.287886470556259,-1.63549423217773,0.647192656993866,0.485623568296432,1.40632307529449
9.6483097076416,0.550947427749634,-2.02118730545044,0.8794673681259159,0.260220944881439,1.1894723176956201
9.91914749145508,0.870239675045013,-2.24506592750549,0.6441384553909301,-0.0200052484869957,1.0570712089538599
10.974830627441401,0.723529756069183,-1.4718850851058998,0.5314370989799501,-0.37643462419509904,0.7360709309577941
12.3936252593994,0.3429214060306551,-0.9013463854789731,0.627492845058441,-0.38498649001121504,0.500131189823151
13.505539894103999,0.223130717873573,-0.408873558044434,0.7443174123764041,-0.4521796703338621,0.32069480419158897
14.5936756134033,0.0782153904438019,-0.200099796056747,0.90099972486496,-0.48592898249626204,-0.10888352245092402
13.106536865234402,-0.0840478986501694,-0.0853938609361649,0.9787300229072571,-0.296871781349182,-0.540752530097961
9.75269603729248,0.12218350917100901,0.00717846769839525,1.01690793037415,-0.0183254182338715,-0.710262656211853
9.98958587646484,-0.474526643753052,0.0070289163850247895,1.1658020019531201,-0.325276166200638,-0.8950439691543579
10.1694965362549,-0.8261220455169681,0.27951160073280296,1.4671024084091202,-0.7262973785400391,-0.9057337641716
10.1368942260742,-0.7085745930671691,0.39556348323822,1.5434583425521897,-0.880689024925232,-0.9142856597900391
9.289984703063961,-0.236440792679787,0.0713360235095024,1.2258176803588898,-0.6410841941833499,-1.04699218273163
8.498109817504881,-0.25887349247932395,-0.0533898547291756,0.60672402381897,-0.27976804971694896,-1.33745002746582
8.65020370483398,-0.74132639169693,0.24077777564525601,0.172411635518074,-0.0497840531170368,-1.5709464550018302
