ax,ay,az,wx,wy,wz
8.80753135681152,-1.9703398942947399,0.016301104798913,-0.321152955293655,0.633448600769043,0.37185326218604997
7.472336292266849,-1.0082756280899001,-0.34426736831665,-0.263733297586441,1.03950929641724,1.05340611934662
8.90578651428223,-0.94456672668457,-0.8196913003921509,-0.0131332157179713,0.990183413028717,1.30522787570953
10.7632150650024,-1.26909327507019,-1.23798656463623,0.37399122118949896,0.333980739116669,1.11953032016754
10.201051712036099,-0.9900303483009342,-1.55398881435394,0.7290462255477909,0.281906008720398,1.11372721195221
8.915956497192381,-0.684646368026733,-1.46066868305206,0.72599196434021,0.480736792087555,1.29805040359497
8.485996246337889,-0.308973222970963,-1.7560327053070102,0.5473191738128661,0.393080204725266,1.45641255378723
9.1607723236084,-0.22372891008853898,-2.09715938568115,0.47142136096954296,0.254417896270752,1.51566481590271
9.96072292327881,0.00299102836288512,-1.94461703300476,0.43568679690361,-0.0714691281318665,1.4683240652084397
10.378568649292001,0.33678978681564303,-1.5541383028030402,0.504712522029877,-0.17348061501979803,1.27208936214447
11.6401844024658,0.26171496510505704,-1.5025430917739901,0.686134159564972,-0.294122964143753,0.931847512722015
13.178770065307601,0.038584265857935,-1.77442753314972,0.850146651268005,-0.439351886510849,0.45263782143592796
14.6038455963135,-0.42711883783340504,-1.76276254653931,0.675902485847473,-0.5074613690376281,-0.0710109919309616
13.3341541290283,-0.318095862865448,-1.4184951782226598,0.255181431770325,-0.234718054533005,-0.42438614368438704
11.091181755065902,-0.0493519678711891,-0.34875389933586104,0.0302369389683008,0.0207688063383102,-0.602142691612244
10.4143123626709,-0.48888358473777793,0.22208385169506098,0.394607335329056,-0.20356485247612,-0.85992020368576
11.128569602966301,-1.13105738162994,0.538684189319611,1.1367866992950402,-0.794254124164581,-1.1383138895034801
10.7712907791138,-1.08634150028229,0.509521663188934,1.72640705108643,-0.9236010313034059,-1.31301617622375
9.70678424835205,-0.886540770530701,-0.0598205663263798,1.5882028341293302,-0.7681404352188109,-1.54529082775116
8.5715389251709,-0.8086245059967041,-0.492024153470993,0.920241415500641,-0.369868010282516,-1.67402696609497
8.49287509918213,-1.07318091392517,-0.219541475176811,0.38162681460380604,-0.11361759155988699,-1.73954033851624
9.03470039367676,-1.4763715267181399,-0.28354948759078996,0.291679561138153,0.0245866030454636,-1.6553961038589498
9.16989421844482,-1.5991532802581798,-0.601047158241272,0.26831465959549,-0.0175618585199118,-1.4895510673522903
9.56949615478516,-1.9045373201370202,-0.6498008966445921,0.0397050715982914,-0.261748045682907,-1.28812420368195
9.70932674407959,-2.10912370681763,-0.657876670360565,-0.278240919113159,-0.238535851240158,-0.8837432861328121
10.5798654556274,-2.57587361335754,-0.6767201423645021,-0.6441384553909301,-0.125987246632576,-0.29595550894737205
9.6542911529541,-2.13649153709412,-0.286690056324005,-0.94849306344986,0.0731489583849907,0.46729815006256104
8.132007598876951,-1.12956178188324,0.20668005943298298,-0.894738495349884,0.5250232219696039,1.18534910678864
8.56974506378174,-0.7797610759735111,-0.27472594380378695,-0.574501872062683,0.6757497787475589,1.3534848690033001
10.2535438537598,-1.05299150943756,-0.5451149344444269,-0.127819791436195,0.36879903078079207,1.28369545936584
10.314112663269,-0.92377907037735,-0.948006391525269,0.349251925945282,0.271979749202728,1.25971972942352
9.18918704986572,-0.663110971450806,-1.47816622257233,0.5586197972297671,0.438741058111191,1.30064654350281
8.36515808105469,-0.326171636581421,-1.8490537405014,0.31367006897926303,0.4605788290500639,1.5003936290741
8.82233715057373,-0.165852516889572,-1.82407855987549,0.0621537081897259,0.33214819431304904,1.6077499389648402
9.81072235107422,-0.0291625261306763,-1.72941255569458,-0.0642916709184647,0.106745555996895,1.52436935901642
10.584650993347198,0.283998131752014,-1.3888839483261102,-0.103844031691551,0.0345128700137138,1.34493291378021
12.0771741867065,0.219541475176811,-1.16425776481628,-0.0844496339559555,-0.0320694819092751,0.9770501852035519
13.369896888732901,-0.213260322809219,-1.2480065822601298,-0.0923906490206718,-0.131179451942444,0.383459359407425
14.060076713562,-0.986740231513977,-0.9302098155021671,-0.16172181069850902,-0.111479625105858,-0.0335965976119041
13.2215414047241,-0.7956135272979741,-0.668345272541046,-0.18859909474849698,-0.072232685983181,-0.171189948916435
10.410423278808599,0.0355932377278805,0.158823609352112,0.0623064190149307,0.24235364794731099,-0.208757057785988
9.85693359375,-0.562761962413788,0.702891647815704,0.741873979568481,-0.26266431808471696,-0.523496091365814
10.826774597167999,-1.2103196382522599,0.669990360736847,1.72243654727936,-1.06776106357574,-0.7826480269432071
10.9932250976562,-0.623031198978424,0.0261714980006218,2.2628836631774902,-1.02637612819672,-0.954448819160461
9.746564865112301,-0.5415256619453429,-0.6979564428329471,1.7073180675506598,-0.807081937789917,-1.44144678115845
8.4535436630249,-0.612113952636719,-0.8839983940124508,0.719883501529694,-0.408198684453964,-1.6958646774291999
8.61356353759766,-1.04581308364868,-0.177218422293663,0.243269920349121,-0.16584503650665303,-1.7326682806015
9.46062278747559,-1.66734874248505,0.19441683590412098,0.23991025984287304,-0.42438614368438704,-1.7925312519073502
9.66401290893555,-1.71026992797852,-0.0475573502480984,0.46928340196609497,-0.5825955867767328,-1.69876623153687
10.526026725769,-2.08564400672913,-0.6756733059883121,0.49677154421806297,-0.639709770679474,-1.5889664888382
10.6512012481689,-2.51620244979858,-1.19700956344604,-0.0590994730591774,-0.695907711982727,-1.21466982364655
10.080662727356,-2.47283267974854,-1.47128677368164,-0.8371661901474,-0.142632842063904,-0.19547112286090898
8.71720218658447,-1.69008052349091,-0.607477843761444,-1.54376375675201,0.654980957508087,0.8904625773429871
8.36112022399902,-0.774975419044495,-0.038584265857935,-1.5426948070526103,1.31271076202393,1.47168374061584
10.129566192627,-0.904038310050964,-0.28250262141227694,-0.967887461185455,1.08150506019592,1.1459494829177899
10.3260765075684,-1.0431210994720501,-0.998704373836517,-0.289694309234619,0.4074351191520689,0.7598940134048459
8.76909637451172,-0.809671342372894,-0.8729315996170041,-0.0201579593122005,0.11010521650314302,0.763559103012085
7.28539705276489,-0.48409792780876204,-1.03833544254303,-0.29488649964332597,0.10598199814558,0.986976444721222
7.2985577583313,-0.38434714078903204,-1.1003992557525601,-0.7759287357330319,0.45859357714653,1.35944056510925
8.667102813720701,-0.5168496966362001,-0.693918585777283,-0.9625425934791559,0.381474107503891,1.6911306381225601
10.864760398864698,0.21909281611442602,-0.0366400964558125,-0.5186093449592589,0.0792574286460876,1.81879770755768
12.3492078781128,0.712462961673737,-0.506680190563202,0.256708562374115,-0.0155766047537327,1.29377448558807
12.9689493179321,0.6038886308670041,-1.00334048271179,0.6514685750007629,-0.35215345025062605,0.761268377304077
14.020744323730499,0.345314204692841,-1.34327077865601,0.6198572516441351,-0.33703497052192705,0.492801040410995
13.3601760864258,0.587437987327576,-1.0911271572113,0.30038413405418396,-0.17577129602432298,0.255181431770325
11.1465158462524,1.1271690130233798,-0.43160539865493797,0.0908635333180428,0.19623468816280398,-0.0406213440001011
10.9867944717407,0.0999003425240517,0.101694963872433,0.224486365914345,0.0891837030649185,-0.618482828140259
11.493624687194801,-0.655035197734833,0.500847697257996,0.748287916183472,-0.5691569447517401,-1.01247930526733
11.5627174377441,-0.752393186092377,0.34965121746063205,1.2119209766387902,-0.840220391750336,-1.3537902832031203
10.385298728942901,-0.813559710979462,-0.199651136994362,1.04897749423981,-0.6493306159973139,-1.72197842597961
9.32124042510986,-0.949501931667328,-0.632452964782715,0.535560309886932,-0.197761803865433,-1.85071444511414
8.97129058837891,-1.5125629901886002,-0.5896812081336981,0.198525354266167,0.00335966004058719,-1.9624994993209801
8.99626541137695,-2.16460728645325,-0.5564808249473571,0.15683503448963199,-0.191347897052765,-1.88782346248627
8.79123020172119,-2.2082762718200697,-0.836889743804932,0.0920852273702621,-0.275186687707901,-1.55307912826538
8.785397529602049,-2.3582763671875,-1.0200902223586998,-0.29839888215065,-0.20921517908573198,-1.14701843261719
9.08031368255615,-2.4840490818023704,-0.92437732219696,-0.740652322769165,-0.11407572776079199,-0.5056288242340089
9.95952606201172,-2.6653053760528596,-0.79112696647644,-0.9280297160148621,-0.0465771034359932,0.208757057785988
9.10513877868652,-2.17507576942444,-0.239581361413002,-1.0402728319168102,-0.0629172697663307,0.901763260364532
8.25269603729248,-1.49327087402344,-0.304486691951752,-0.8964183330535892,0.262969732284546,1.4130424261093102
10.402197837829599,-1.6947166919708299,-0.89057868719101,-0.836708009243011,0.22280654311180104,1.47153103351593
10.9307126998901,-1.3863415718078602,-0.679561614990234,-0.870151937007904,0.0580304898321629,1.37013041973114
9.85050296783447,-1.13389885425568,0.0025423739571124302,-0.9568922519683841,0.105829291045666,1.17924058437347
8.20139980316162,-0.744167864322662,0.37956148386001604,-0.970178186893463,0.41339087486267106,1.2204728126525901
8.02163887023926,-0.500847697257996,0.595214605331421,-0.792421579360962,0.477835267782211,1.2783505916595501
9.144021987915039,-0.436690121889114,0.321086883544922,-0.426371395587921,0.31993123888969394,1.2250541448593102
10.918449401855499,-0.465254455804825,-0.253489643335342,-0.23120568692684199,0.19913621246814703,1.09647083282471
11.0017499923706,-0.27098715305328397,-0.648604512214661,-0.29534465074539196,0.453248679637909,0.998277127742767
12.1579322814941,-0.350548505783081,-0.627218663692474,-0.42652410268783597,0.417514115571976,1.0013313293457
13.370943069458,-0.396012157201767,-0.8288139700889591,-0.48394373059272794,0.335507869720459,0.7498149871826171
13.5526485443115,-0.328863561153412,-0.33125638961792,-0.587940514087677,0.143243685364723,0.478751540184021
11.5390882492065,0.40722849965095503,-0.0879362300038338,-0.680025696754456,0.597103178501129,0.20264858007431
10.148858070373501,-0.100498549640179,-0.195314154028893,-0.865417838096619,0.6247440576553339,-0.26251161098480197
10.9307126998901,-0.8967102766036991,-0.31615167856216403,-0.8189934492111209,0.0775775983929634,-0.5288410186767579
10.889884948730499,-1.26176524162292,-0.320040017366409,-0.685981452465057,0.20692451298236803,-1.00866150856018
8.848508834838869,-1.3971092700958299,-0.330957293510437,-0.746913492679596,0.0733016729354858,-1.51917707920074
6.9092755317688,-0.885793030261993,-0.6876373887062069,-0.726144671440125,-0.0876565799117088,-1.3959387540817298
7.63160848617554,-0.7073782086372379,-0.299850583076477,-0.302827537059784,-0.15729317069053603,-1.19573354721069
8.83848857879639,-1.2183953523635902,-0.673579573631287,0.101095221936703,-0.382543087005615,-1.29499614238739
10.5109224319458,-1.1994023323059098,-0.9370891451835629,0.13850961625576,-0.48928865790367104,-1.1271659135818501
11.6108732223511,-1.54157602787018,-1.12043917179108,-0.0974301397800446,-0.409114956855774,-1.07936716079712
12.1588287353516,-1.7274683713913,-1.11879408359528,-0.40621343255043,-0.34161633253097495,-0.849077701568604
13.055090904235803,-2.5160529613494904,-0.9330512881278991,-0.52639764547348,-0.32008397579193104,-0.6065713167190551
10.8243818283081,-2.63524556159973,-0.11994023621082302,-0.6919372081756588,-0.30847787857055703,-0.17729841172695202
6.82358264923096,-2.0672492980957,0.8641080856323241,-0.532200694084167,0.326345145702362,0.430341899394989
8.91266632080078,-2.4462125301361097,0.0815055221319199,-0.341005474328995,0.17012095451355,0.25395974516868597
10.2258768081665,-2.18823623657227,-0.6432206630706789,-0.345739543437958,-0.20493926107883498,0.33260634541511497
8.975178718566891,-1.6453646421432502,-0.369242429733276,-0.540752530097961,-0.11025793105363799,0.7204943299293521
7.45603513717651,-0.833898663520813,-0.40797626972198503,-0.689188420772552,0.39705070853233293,0.948034942150116
7.48190784454346,-0.35249269008636497,-0.697358250617981,-0.687355875968933,0.42652410268783597,1.05920910835266
8.67084121704102,0.0152542442083359,-1.4279168844223002,-0.462258666753769,-0.0800209939479828,0.8988617658615109
9.40319442749023,0.12263216078281401,-1.2076276540756201,-0.260984480381012,-0.5909947156906129,0.8393041491508481
9.75224781036377,0.424426913261414,-1.10368943214417,-0.0317640565335751,-0.33642414212226895,1.09112596511841
11.304292678833,0.474227547645569,-1.26954197883606,0.0572669319808483,-0.159736558794975,1.2154333591461202
12.805937767028801,0.7917252182960509,-1.35433757305145,0.297635316848755,-0.19211146235466,1.1873344182968102
14.7882423400879,0.968494951725006,-1.6680965423584,0.61313796043396,-0.45156884193420394,0.793643295764923
13.8788204193115,1.6884354352951003,-1.79775750637054,0.625965714454651,-0.211047723889351,0.26892551779747004
11.095219612121598,1.4566308259963998,-0.905683398246765,0.499214917421341,0.0444391369819641,-0.462258666753769
10.8821086883545,0.271734923124313,-0.46331027150154097,0.712706029415131,-0.373074948787689,-1.04012012481689
11.222487449646001,-0.152841553092003,-0.31914272904396096,1.2048962116241497,-0.748746037483215,-1.20168924331665
10.4413805007935,-0.0435194633901119,-0.440578460693359,1.2456703186035198,-0.7605048418045041,-1.40830838680267
9.36461067199707,-0.0399302281439304,-0.695862710475922,0.605960488319397,-0.602295398712158,-1.72946131229401
8.93420124053955,-0.32916265726089505,-0.29401808977127103,0.142785549163818,-0.37567105889320396,-1.98983490467072
9.49905681610107,-1.03100740909576,-0.15807583928108201,0.0464243926107883,-0.464702039957047,-2.1086447238922097
10.079465866088901,-1.59765779972076,-0.46480581164359996,-0.0930014923214912,-0.491884768009186,-2.0877232551574703
10.1412305831909,-2.11076855659485,-0.6943672299385071,-0.409267663955688,-0.421026468276978,-1.851478099823
10.7479610443115,-2.25658130645752,-0.482452869415283,-0.6740699410438541,-0.42912021279335,-1.29698145389557
11.426177024841301,-2.48210477828979,-0.284745901823044,-0.641542315483093,-0.261595338582993,-0.710720777511597
9.80264663696289,-2.28125739097595,0.00149551418144256,-0.58534437417984,-0.114992000162601,0.0821589529514313
7.42178821563721,-0.8851948380470279,0.827168881893158,-0.308630585670471,0.373074948787689,1.03080475330353
7.676025390625,-0.359521597623825,0.45987060666084295,0.304812788963318,0.8035695552825931,1.2798776626586899
9.77303504943848,-0.595364212989807,-0.664905607700348,0.996291875839233,0.470657825469971,1.16183149814606
10.5278215408325,-0.47931230068206804,-1.4464613199234,1.3879976272583001,0.20173230767250103,1.26292669773102
9.47213840484619,-0.0930209830403328,-1.70354020595551,1.1442695856094398,0.454928487539291,1.3368391990661599
8.3711404800415,0.353240430355072,-1.66061890125275,0.624285876750946,0.667350649833679,1.44465374946594
8.30982398986816,0.47617170214653,-1.6748262643814098,0.42224815487861606,0.69987827539444,1.43488025665283
9.31914710998535,0.470638304948807,-2.10329103469849,0.554649293422699,0.37948885560035706,1.54406917095184
10.236345291137699,0.9327521920204159,-2.3771197795867898,0.75225841999054,0.0821589529514313,1.58881366252899
11.459975242614698,1.30707931518555,-2.32178568840027,0.8217422962188721,-0.17745113372802698,1.35302662849426
13.6064872741699,1.46889400482178,-2.10044956207275,0.867097675800323,-0.58381724357605,0.851368367671967
14.9784717559814,1.21002054214478,-1.79237365722656,0.8321266770362851,-0.5616740584373471,0.076966755092144
14.9686012268066,0.7921738624572751,-1.70054912567139,0.5454866290092469,-0.387888014316559,-0.567629814147949
11.834451675415002,0.819392204284668,-0.9876375198364259,0.303896516561508,0.0621537081897259,-0.863432586193085
10.6226367950439,0.00373878539539874,0.121884405612946,0.559841513633728,-0.32848310470581105,-1.21894574165344
11.678021430969201,-1.1003992557525601,0.879362344741821,1.23635482788086,-1.04897749423981,-1.5080292224884
10.3408823013306,-1.0272686481475801,1.2835998535156201,1.78565919399261,-1.12640237808228,-1.42342686653137
8.97712326049805,-0.6664010882377621,0.688086032867432,1.74702310562134,-0.8612946271896359,-1.2962179183959999
8.52458000183105,-0.392871558666229,0.06894320249557499,1.3292036056518601,-0.488066971302032,-1.42342686653137
8.767152786254881,-0.673280477523804,0.0767198726534843,1.00896692276001,-0.49463355541229204,-1.55521714687347
9.696614265441891,-1.06734848022461,0.21759730577468897,0.8525900840759281,-0.680331110954285,-1.6387504339218102
10.4250793457031,-1.2906286716461202,0.006430710665881629,0.701099932193756,-0.5286883115768429,-1.70288944244385
10.645368576049801,-1.6852948665618899,-0.724576592445374,0.269230931997299,-0.273201435804367,-1.6469969749450701
10.5520486831665,-1.9770697355270401,-1.0900802612304699,-0.4043808877468111,0.0145076224580407,-1.2636902332305902
9.848708152771,-2.29023027420044,-0.7849953770637509,-0.95964103937149,0.321152955293655,-0.595117926597595
7.905138492584231,-1.92756819725037,-0.0937687382102013,-1.14778196811676,0.646429121494293,0.431258171796799
6.41949462890625,-0.9454640746116642,0.11799606680870099,-0.9688037633895871,1.0766183137893701,1.46282649040222
8.3140115737915,-0.885344386100769,-0.496510684490204,-0.6100836992263791,1.03660774230957,1.81940853595734
10.639087677002,-1.1183454990387,-0.711864709854126,0.0113006746396422,0.37170055508613603,1.9922783374786397
11.553295135497999,-0.686441004276276,-1.0983055830001802,0.787687540054321,0.293053984642029,2.17843413352966
9.994221687316891,-0.0430708080530167,-0.917198836803436,1.1280821561813401,0.48547086119651794,2.05992960929871
9.48425197601318,0.240030020475388,-1.07063853740692,1.1557229757308998,0.296719044446945,1.95379495620728
10.61097240448,0.454038083553314,-1.58090806007385,1.28781878948212,0.19883078336715698,1.75633859634399
11.116904258728,0.7936693429946899,-1.95478653907776,1.2659809589386002,0.0419957488775253,1.3502779006958001
10.769795417785598,1.21734857559204,-1.86251330375671,1.09250032901764,0.00549762509763241,0.960099160671234
11.492427825927699,0.893868803977966,-1.7189439535141,0.970789015293121,-0.0565033704042435,0.48791423439979603
12.7206935882568,0.423380047082901,-1.5658032894134502,0.942995429039001,-0.45034715533256503,0.00763559062033892
14.252847671508801,-0.0930209830403328,-1.04237341880798,0.786007702350616,-0.663838267326355,-0.38529190421104403
14.213366508483901,-0.0830010324716568,-0.68165534734726,0.5213581323623661,-0.564117431640625,-0.775623321533203
11.1505537033081,0.211914360523224,0.0281156655400991,0.38300123810768105,-0.0784938707947731,-1.0683718919754
10.496864318847699,-0.647408068180084,0.5564808249473571,0.6126797795295721,-0.356123954057693,-1.36951959133148
11.434850692749,-1.70010054111481,1.26804649829865,1.30690765380859,-1.11128389835358,-1.59431135654449
10.724331855773901,-1.4850455522537198,1.33938252925873,1.94402134418488,-1.2554438114166298,-1.44404292106628
9.44656467437744,-0.890130043029785,0.720389187335968,1.84185719490051,-1.07356405258179,-1.33867180347443
8.54716205596924,-0.490079998970032,0.183050930500031,1.33668649196625,-0.5468609929084779,-1.45228934288025
8.8598747253418,-0.759571611881256,0.384197592735291,0.9242119193077091,-0.370936989784241,-1.6268389225006101
9.713663101196289,-1.34267258644104,0.573828756809235,0.8296833038330079,-0.5349494814872741,-1.77496945858002
9.62423133850098,-1.6181463003158603,0.422034084796906,0.7751652002334591,-0.5493044257164,-1.7456487417221103
9.7097749710083,-1.78459703922272,0.23883360624313396,0.588856756687164,-0.523648798465729,-1.4638954401016202
9.79561805725098,-1.68993103504181,-0.0771685317158699,0.40147936344146706,-0.24983653426170302,-1.05905640125275
9.7399845123291,-1.91111755371094,-0.36460635066032393,0.057877779006958,0.0461189672350883,-0.454928487539291
8.7708911895752,-1.74481630325317,-0.17063815891742698,-0.337493121623993,0.5091412067413329,0.383917510509491
7.27881669998169,-1.03235340118408,0.428315252065659,-0.453706800937653,1.13861930370331,1.26796615123749
7.93071174621582,-0.9542875885963441,-0.0215354040265083,-0.35169529914856,1.5318522453308099,1.8591135740280198
10.4656076431274,-1.13808631896973,-0.725623488426208,-0.11758809536695501,1.2455176115036,2.19156718254089
11.849257469177198,-0.9865906834602359,-0.803091108798981,0.309088706970215,0.595423340797424,2.30457401275635
11.0983600616455,-0.516550600528717,-0.616899609565735,0.841442108154297,0.6453601121902471,2.20744919776917
10.6939725875854,0.24541386961936998,-2.56525540351868,0.729809761047363,1.3026317358016999,2.07336831092834
10.9021482467651,0.257377982139587,-0.5294120311737059,-0.24097923934459697,0.837471604347229,1.52100968360901
10.765907287597699,0.26635107398033103,-0.6212365627288821,-0.215629085898399,0.31046313047409096,0.988961696624756
10.5160064697266,0.37971103191375705,-0.216101795434952,0.32924667000770597,0.49646610021591203,0.833042919635773
10.4588785171509,0.333948314189911,-0.276371002197266,0.732253134250641,0.185086712241173,0.5966450572013849
11.9304637908936,-0.0910768136382103,-0.304486691951752,1.06012547016144,-0.29702448844909696,0.34344887733459495
13.026825904846199,-0.10154540836811099,-0.597457885742188,1.24612843990326,-0.502421855926514,0.12064233422279401
14.7643136978149,-0.47886362671852095,-0.9364909529685971,0.8405258059501651,-0.7064448595047,-0.27045261859893804
12.008679389953599,-0.0521934442222118,-0.8310571908950809,-0.0177145712077618,-0.130415886640549,-0.785244166851044
9.91585731506348,-0.7694420218467709,0.8913264274597171,-0.42576053738594105,-0.13087402284145402,-1.10700798034668
10.992926597595199,-1.5816557407379197,2.23803687095642,0.203412130475044,-0.890004456043243,-1.33011984825134
10.890034675598098,-1.59855508804321,2.74860548973083,1.37013041973114,-1.45183122158051,-1.3783768415451003
9.97074222564697,-1.08993077278137,2.19362020492554,1.9854062795639,-1.7161753177642802,-1.4425158500671398
9.16256618499756,-0.780060172080994,0.965952575206757,1.7795507907867398,-1.34493291378021,-1.59629654884338
8.800801277160641,-0.887886762619019,0.641276478767395,1.0865445137023901,-0.9280297160148621,-1.68120431900024
9.76705360412598,-1.25039935112,0.722931563854218,0.595728814601898,-0.8257128000259399,-1.62546455860138
10.026226043701199,-1.38798666000366,0.642921507358551,0.10078980028629302,-0.75042587518692,-1.54773426055908
10.207781791687,-1.4018949270248402,0.751944541931152,-0.388651579618454,-0.51341712474823,-1.36005139350891
11.147113800048801,-1.6350456476211501,0.865454018115997,-0.591911017894745,-0.162332653999329,-1.2195565700531001
11.2091779708862,-1.8430716991424598,0.38718861341476396,-0.5343386530876161,0.227540597319603,-0.9168817400932309
9.18350410461426,-1.6682460308074998,0.6106184124946589,-0.653148412704468,0.566713571548462,-0.147061482071877
6.39302396774292,-0.43414774537086503,1.29107737541199,-0.130721315741539,1.3159177303314198,0.833348393440247
7.50000333786011,-0.288634240627289,0.257976204156876,0.85992020368576,1.52788174152374,1.39807665348053
9.74850940704346,-1.1341979503631598,-0.0686440989375114,1.7739003896713301,0.506086945533752,1.27575445175171
10.282855987548801,-1.29436755180359,-0.4269692897796629,2.4107086658477797,-0.31443363428115806,1.2536113262176498
9.862616539001461,-0.7995018362998959,-1.0679466724395799,2.4693500995636,0.0319167710840702,1.5258964300155602
9.55394268035889,-0.11500503867864599,-1.84830594062805,2.0144214630127,0.367882758378983,1.68853449821472
10.265059471130401,0.30672994256019603,-2.04780745506287,1.54865050315857,0.28740364313125605,1.37165749073029
10.1844511032104,0.386889517307281,-1.77622210979462,1.30141007900238,0.0647498071193695,0.905886471271515
9.687192916870119,0.54122656583786,-1.50373947620392,1.1917630434036297,0.0852131918072701,0.719883501529694
10.113713264465302,0.40722849965095503,-1.3488042354583702,1.19955134391785,0.0157293174415827,0.526244938373566
11.461022377014197,0.0538385100662708,-1.16665053367615,1.35577547550201,-0.23380178213119499,0.331079214811325
13.6500062942505,-0.520588457584381,-1.14765751361847,1.3806675672531101,-0.525481343269348,0.106134712696075
13.763665199279801,-0.0897308513522148,-1.07557380199432,1.17236864566803,-0.553733050823212,-0.0742179453372955
11.596815109252901,0.48364928364753706,-0.535543620586395,0.886339366436005,-0.105523861944675,-0.29855158925056496
10.6301145553589,-0.0809073150157928,0.0294616296887398,0.7742488980293271,-0.12430741637945199,-0.8304468393325809
11.1806135177612,-0.9990034699439999,0.7698906660079959,1.17359030246735,-0.702321648597717,-1.08929336071014
10.1273231506348,-1.1883355379104599,1.39815616607666,1.71999311447144,-0.95307445526123,-0.987129151821136
8.801698684692381,-0.8745766878128051,1.28494572639465,1.92264175415039,-1.0005677938461301,-0.862974464893341
8.35244655609131,-0.629611432552338,0.827168881893158,1.8652220964431798,-0.670099437236786,-0.83075225353241
8.51276588439941,-0.695114970207214,0.713360249996185,1.7148009538650502,-0.6065713167190551,-0.8335011005401608
9.69078254699707,-0.972682416439056,0.476620346307755,1.58346879482269,-0.7511894106864929,-0.9240592122077941
9.76241683959961,-1.25279223918915,0.00433699088171124,1.11158931255341,-0.691479086875916,-1.1050226688384999
10.1612710952759,-1.5613167285919198,0.24122643470764202,0.324970752000809,-0.531131684780121,-1.08761358261108
11.595618247985803,-2.1681964397430398,0.0931705310940742,-0.17897824943065602,-0.0152711812406778,-1.11265826225281
12.6581811904907,-2.58409881591797,-0.459721058607101,-0.71789824962616,0.220973998308182,-0.9681929349899291
11.238788604736301,-2.52652168273926,-0.33723843097686795,-1.2754490375518799,0.69315892457962,-0.739888727664948
6.149554252624509,-2.54372000694275,0.129960179328918,-1.40693390369415,1.4562598466873202,-0.18676654994487804
6.40035200119019,-2.0371894836425803,0.7348956465721129,-0.9842276573181149,1.28430640697479,1.08440661430359
9.9964656829834,-1.43569362163544,1.18235349655151,0.0629172697663307,0.657729804515839,1.53124141693115
10.772038459777802,-1.28285205364227,0.381655216217041,1.2152806520461998,0.382848531007767,1.1665655374527
9.40349388122559,-0.9556335210800171,-0.17856438457965898,1.5700302124023402,0.178061977028847,1.1267077922821003
9.329915046691891,-0.6282655000686651,-0.696161866188049,1.29163658618927,0.39384377002716103,1.2751436233520501
9.29865837097168,-0.325573444366455,-1.12746810913086,0.8428165316581729,0.831363141536713,1.32340061664581
9.49905681610107,-0.163459703326225,-1.11400854587555,0.5877877473831179,0.890004456043243,1.36127316951752
10.1309118270874,-0.151196479797363,-1.1134102344512902,0.586718797683716,0.732253134250641,1.2742273807525601
10.934302330017099,-0.45987060666084295,-1.0181460380554201,0.682774543762207,0.30068957805633506,1.0683718919754
12.1028966903687,-0.6803094148635861,-1.2928719520568799,0.609625577926636,-0.119573347270489,0.888171911239624
13.1964168548584,-0.777368247509003,-0.840030312538147,0.277171939611435,-0.388804286718369,0.798071920871735
13.859377861022901,-0.9264709949493409,-0.555284380912781,-0.00229067727923393,-0.37628191709518394,0.583969950675964
11.679217338562,-0.118594273924828,0.109621189534664,-0.0555871017277241,-0.0818535313010216,0.4317162930965421
9.93843936920166,-0.189182534813881,0.539282381534576,0.20417569577693898,-0.0910162404179573,0.00030542362947017003
9.65518856048584,-0.451346158981323,0.657278478145599,0.8348754644393921,-0.574501872062683,-0.355054974555969
10.806884765625,-0.6565307378768921,0.9620642662048341,1.5130686759948702,-1.2821683883666999,-0.639098942279816
11.2740831375122,-0.784098088741302,0.855733215808868,1.69403219223022,-1.67143082618713,-1.20062029361725
